{
  "resourceType": "Bundle",
  "type": "document",
  "entry": [
    {
      "fullUrl": "urn:uuid:a01b3560-fd18-4ef1-84a4-6e37ac36d2bc",
      "resource": {
        "resourceType": "Composition",
        "id": "a01b3560-fd18-4ef1-84a4-6e37ac36d2bc",
        "status": "final",
        "type": {
          "coding": [
            {
              "system": "http://loinc.org",
              "code": "60591-5",
              "display": "Patient summary Document"
            }
          ]
        },
        "subject": {
          "reference": "urn:uuid:8b2a115e-7f92-4bdb-afff-b491968272c0"
        },
        "date": "2025-07-01T16:14:46.504702+00:00",
        "author": [
          {
            "reference": "urn:uuid:psca-author-org",
            "display": "Wellness Way Hospital"
          }
        ],
        "title": "PS-CA Patient Summary",
        "custodian": {
          "reference": "urn:uuid:psca-author-org",
          "display": "Wellness Way Hospital"
        },
        "section": [
          {
            "title": "Allergies",
            "code": {
              "coding": [
                {
                  "system": "http://loinc.org",
                  "code": "48765-2",
                  "display": "Allergies and adverse reactions Document"
                }
              ]
            },
            "entry": [
              {
                "reference": "urn:uuid:fcff9c77-a87b-400b-b3e7-49d863205555"
              },
              {
                "reference": "urn:uuid:914e8c39-2912-40a2-99d6-32d8a09245e5"
              },
              {
                "reference": "urn:uuid:7c8d5316-5501-4bf5-bbe5-66b29af42a2e"
              }
            ]
          },
          {
            "title": "Medications",
            "code": {
              "coding": [
                {
                  "system": "http://loinc.org",
                  "code": "10160-0",
                  "display": "History of Medication use Narrative"
                }
              ]
            },
            "entry": [
              {
                "reference": "urn:uuid:5016424b-f133-4033-af86-95b1a044abde"
              }
            ]
          },
          {
            "title": "Immunizations",
            "code": {
              "coding": [
                {
                  "system": "http://loinc.org",
                  "code": "11369-6",
                  "display": "History of Immunization Narrative"
                }
              ]
            },
            "entry": [
              {
                "reference": "urn:uuid:d804f2db-3cba-49e3-85d3-1fe18120440a"
              },
              {
                "reference": "urn:uuid:a080d24f-6fe4-4d6f-b6f0-30f36f3087d9"
              },
              {
                "reference": "urn:uuid:83f28a67-4879-4e1d-a83e-bbada5113fc6"
              },
              {
                "reference": "urn:uuid:ee37c235-74cc-48cc-8790-f31827d40e07"
              },
              {
                "reference": "urn:uuid:6ede0932-334f-4451-93de-1d3db9aeb2ab"
              },
              {
                "reference": "urn:uuid:4cbbfca4-a85c-49bc-8418-12a2a64eeba0"
              }
            ]
          }
        ],
        "meta": {
          "profile": [
            "http://fhir.infoway-inforoute.ca/io/psca/StructureDefinition/Composition-ps-ca"
          ]
        }
      }
    },
    {
      "fullUrl": "urn:uuid:8b2a115e-7f92-4bdb-afff-b491968272c0",
      "resource": {
        "resourceType": "Patient",
        "id": "8b2a115e-7f92-4bdb-afff-b491968272c0",
        "identifier": [
          {
            "system": "http://example.org/healthcardnumber",
            "value": "999 471 999"
          }
        ],
        "name": [
          {
            "family": "Doo",
            "given": [
              "Scooby"
            ]
          }
        ],
        "telecom": [
          {
            "system": "phone",
            "value": "331 243 2921",
            "use": "home"
          },
          {
            "system": "email",
            "value": "Scooby.Doo@outlook.com",
            "use": "home"
          }
        ],
        "gender": "other",
        "birthDate": "1990-06-18",
        "address": [
          {
            "line": [
              "9911 William Curve"
            ],
            "city": "New Anthonyport",
            "state": "Saskatchewan",
            "postalCode": "T4N 7J4",
            "country": "Canada"
          }
        ],
        "photo": [
          {
            "contentType": "image/jpeg",
            "data": ""
          }
        ],
        "meta": {
          "profile": [
            "http://fhir.infoway-inforoute.ca/io/psca/StructureDefinition/Patient-ps-ca"
          ]
        }
      }
    },
    {
      "fullUrl": "urn:uuid:psca-author-org",
      "resource": {
        "resourceType": "Organization",
        "id": "psca-author-org",
        "name": "Wellness Way Hospital",
        "meta": {
          "profile": [
            "http://fhir.infoway-inforoute.ca/io/psca/StructureDefinition/Organization-ps-ca"
          ]
        }
      }
    },
    {
      "fullUrl": "urn:uuid:fcff9c77-a87b-400b-b3e7-49d863205555",
      "resource": {
        "resourceType": "AllergyIntolerance",
        "id": "fcff9c77-a87b-400b-b3e7-49d863205555",
        "clinicalStatus": {
          "coding": [
            {
              "system": "http://terminology.hl7.org/CodeSystem/allergyintolerance-clinical",
              "code": "active"
            }
          ]
        },
        "verificationStatus": {
          "coding": [
            {
              "system": "http://terminology.hl7.org/CodeSystem/allergyintolerance-verification",
              "code": "confirmed"
            }
          ]
        },
        "code": {
          "coding": [
            {
              "system": "http://snomed.info/sct",
              "code": "227493005",
              "display": "Milk protein"
            }
          ]
        },
        "patient": {
          "reference": "urn:uuid:8b2a115e-7f92-4bdb-afff-b491968272c0"
        },
        "reaction": [
          {
            "manifestation": [
              {
                "coding": [
                  {
                    "system": "http://snomed.info/sct",
                    "code": "422400008",
                    "display": "Rash"
                  }
                ]
              }
            ],
            "severity": "mild"
          }
        ],
        "meta": {
          "profile": [
            "http://fhir.infoway-inforoute.ca/io/psca/StructureDefinition/AllergyIntolerance-ps-ca"
          ]
        }
      }
    },
    {
      "fullUrl": "urn:uuid:914e8c39-2912-40a2-99d6-32d8a09245e5",
      "resource": {
        "resourceType": "AllergyIntolerance",
        "id": "914e8c39-2912-40a2-99d6-32d8a09245e5",
        "clinicalStatus": {
          "coding": [
            {
              "system": "http://terminology.hl7.org/CodeSystem/allergyintolerance-clinical",
              "code": "active"
            }
          ]
        },
        "verificationStatus": {
          "coding": [
            {
              "system": "http://terminology.hl7.org/CodeSystem/allergyintolerance-verification",
              "code": "confirmed"
            }
          ]
        },
        "code": {
          "coding": [
            {
              "system": "http://snomed.info/sct",
              "code": "91937009",
              "display": "Ibuprofen"
            }
          ]
        },
        "patient": {
          "reference": "urn:uuid:8b2a115e-7f92-4bdb-afff-b491968272c0"
        },
        "reaction": [
          {
            "manifestation": [
              {
                "coding": [
                  {
                    "system": "http://snomed.info/sct",
                    "code": "422400008",
                    "display": "Rash"
                  }
                ]
              }
            ],
            "severity": "mild"
          }
        ],
        "meta": {
          "profile": [
            "http://fhir.infoway-inforoute.ca/io/psca/StructureDefinition/AllergyIntolerance-ps-ca"
          ]
        }
      }
    },
    {
      "fullUrl": "urn:uuid:7c8d5316-5501-4bf5-bbe5-66b29af42a2e",
      "resource": {
        "resourceType": "AllergyIntolerance",
        "id": "7c8d5316-5501-4bf5-bbe5-66b29af42a2e",
        "clinicalStatus": {
          "coding": [
            {
              "system": "http://terminology.hl7.org/CodeSystem/allergyintolerance-clinical",
              "code": "active"
            }
          ]
        },
        "verificationStatus": {
          "coding": [
            {
              "system": "http://terminology.hl7.org/CodeSystem/allergyintolerance-verification",
              "code": "confirmed"
            }
          ]
        },
        "code": {
          "coding": [
            {
              "system": "http://snomed.info/sct",
              "code": "91932001",
              "display": "Aspirin"
            }
          ]
        },
        "patient": {
          "reference": "urn:uuid:8b2a115e-7f92-4bdb-afff-b491968272c0"
        },
        "reaction": [
          {
            "manifestation": [
              {
                "coding": [
                  {
                    "system": "http://snomed.info/sct",
                    "code": "271759003",
                    "display": "Wheezing"
                  }
                ]
              }
            ],
            "severity": "severe"
          }
        ],
        "meta": {
          "profile": [
            "http://fhir.infoway-inforoute.ca/io/psca/StructureDefinition/AllergyIntolerance-ps-ca"
          ]
        }
      }
    },
    {
      "fullUrl": "urn:uuid:5016424b-f133-4033-af86-95b1a044abde",
      "resource": {
        "resourceType": "MedicationStatement",
        "id": "5016424b-f133-4033-af86-95b1a044abde",
        "status": "active",
        "medicationCodeableConcept": {
          "coding": [
            {
              "system": "http://terminology.hl7.org/CodeSystem/hc-CCDD",
              "code": "9000723",
              "display": "\tramipril 5 mg oral capsule"
            }
          ]
        },
        "subject": {
          "reference": "urn:uuid:8b2a115e-7f92-4bdb-afff-b491968272c0"
        },
        "meta": {
          "profile": [
            "http://fhir.infoway-inforoute.ca/io/psca/StructureDefinition/MedicationStatement-ps-ca"
          ]
        }
      }
    },
    {
      "fullUrl": "urn:uuid:d804f2db-3cba-49e3-85d3-1fe18120440a",
      "resource": {
        "resourceType": "Immunization",
        "id": "d804f2db-3cba-49e3-85d3-1fe18120440a",
        "status": "completed",
        "vaccineCode": {
          "coding": [
            {
              "system": "http://snomed.info/sct",
              "code": "28581000087106",
              "display": "[COVID-19] COMIRNATY (original strain) 30 mcg/0.3 mL"
            }
          ]
        },
        "patient": {
          "reference": "urn:uuid:8b2a115e-7f92-4bdb-afff-b491968272c0"
        },
        "occurrenceDateTime": "2024-12-18T00:00:00",
        "primarySource": true,
        "site": {
          "coding": [
            {
              "system": "http://terminology.hl7.org/CodeSystem/v2-0493",
              "code": "RA",
              "display": "Right arm"
            }
          ]
        },
        "route": {
          "coding": [
            {
              "system": "http://snomed.info/sct",
              "code": "78421000",
              "display": "Intramuscular: IM"
            }
          ]
        },
        "meta": {
          "profile": [
            "http://fhir.infoway-inforoute.ca/io/psca/StructureDefinition/Immunization-ps-ca"
          ]
        }
      }
    },
    {
      "fullUrl": "urn:uuid:a080d24f-6fe4-4d6f-b6f0-30f36f3087d9",
      "resource": {
        "resourceType": "Immunization",
        "id": "a080d24f-6fe4-4d6f-b6f0-30f36f3087d9",
        "status": "completed",
        "vaccineCode": {
          "coding": [
            {
              "system": "http://snomed.info/sct",
              "code": "31541000087105",
              "display": "[Var] VARILRIX"
            }
          ]
        },
        "patient": {
          "reference": "urn:uuid:8b2a115e-7f92-4bdb-afff-b491968272c0"
        },
        "occurrenceDateTime": "2023-10-17T00:00:00",
        "primarySource": true,
        "site": {
          "coding": [
            {
              "system": "http://terminology.hl7.org/CodeSystem/v2-0493",
              "code": "RA",
              "display": "Right arm"
            }
          ]
        },
        "route": {
          "coding": [
            {
              "system": "http://snomed.info/sct",
              "code": "78421000",
              "display": "Intramuscular: IM"
            }
          ]
        },
        "meta": {
          "profile": [
            "http://fhir.infoway-inforoute.ca/io/psca/StructureDefinition/Immunization-ps-ca"
          ]
        }
      }
    },
    {
      "fullUrl": "urn:uuid:83f28a67-4879-4e1d-a83e-bbada5113fc6",
      "resource": {
        "resourceType": "Immunization",
        "id": "83f28a67-4879-4e1d-a83e-bbada5113fc6",
        "status": "completed",
        "vaccineCode": {
          "coding": [
            {
              "system": "http://snomed.info/sct",
              "code": "7361000087100",
              "display": "[IPV] IMOVAX POLIO"
            }
          ]
        },
        "patient": {
          "reference": "urn:uuid:8b2a115e-7f92-4bdb-afff-b491968272c0"
        },
        "occurrenceDateTime": "2024-08-24T00:00:00",
        "primarySource": true,
        "site": {
          "coding": [
            {
              "system": "http://terminology.hl7.org/CodeSystem/v2-0493",
              "code": "RA",
              "display": "Right arm"
            }
          ]
        },
        "route": {
          "coding": [
            {
              "system": "http://snomed.info/sct",
              "code": "78421000",
              "display": "Intramuscular: IM"
            }
          ]
        },
        "meta": {
          "profile": [
            "http://fhir.infoway-inforoute.ca/io/psca/StructureDefinition/Immunization-ps-ca"
          ]
        }
      }
    },
    {
      "fullUrl": "urn:uuid:ee37c235-74cc-48cc-8790-f31827d40e07",
      "resource": {
        "resourceType": "Immunization",
        "id": "ee37c235-74cc-48cc-8790-f31827d40e07",
        "status": "completed",
        "vaccineCode": {
          "coding": [
            {
              "system": "http://snomed.info/sct",
              "code": "7161000087102",
              "display": "[MMR] M-M-R II"
            }
          ]
        },
        "patient": {
          "reference": "urn:uuid:8b2a115e-7f92-4bdb-afff-b491968272c0"
        },
        "occurrenceDateTime": "2023-08-31T00:00:00",
        "primarySource": true,
        "site": {
          "coding": [
            {
              "system": "http://terminology.hl7.org/CodeSystem/v2-0493",
              "code": "LA",
              "display": "Left arm"
            }
          ]
        },
        "route": {
          "coding": [
            {
              "system": "http://snomed.info/sct",
              "code": "78421000",
              "display": "Intramuscular: IM"
            }
          ]
        },
        "meta": {
          "profile": [
            "http://fhir.infoway-inforoute.ca/io/psca/StructureDefinition/Immunization-ps-ca"
          ]
        }
      }
    },
    {
      "fullUrl": "urn:uuid:6ede0932-334f-4451-93de-1d3db9aeb2ab",
      "resource": {
        "resourceType": "Immunization",
        "id": "6ede0932-334f-4451-93de-1d3db9aeb2ab",
        "status": "completed",
        "vaccineCode": {
          "coding": [
            {
              "system": "http://snomed.info/sct",
              "code": "51471000087104",
              "display": "[COVID-19] COMIRNATY Omicron XBB.1.5 30 mcg/0.3 mL"
            }
          ]
        },
        "patient": {
          "reference": "urn:uuid:8b2a115e-7f92-4bdb-afff-b491968272c0"
        },
        "occurrenceDateTime": "2024-06-08T00:00:00",
        "primarySource": true,
        "site": {
          "coding": [
            {
              "system": "http://terminology.hl7.org/CodeSystem/v2-0493",
              "code": "LA",
              "display": "Left arm"
            }
          ]
        },
        "route": {
          "coding": [
            {
              "system": "http://snomed.info/sct",
              "code": "78421000",
              "display": "Intramuscular: IM"
            }
          ]
        },
        "meta": {
          "profile": [
            "http://fhir.infoway-inforoute.ca/io/psca/StructureDefinition/Immunization-ps-ca"
          ]
        }
      }
    },
    {
      "fullUrl": "urn:uuid:4cbbfca4-a85c-49bc-8418-12a2a64eeba0",
      "resource": {
        "resourceType": "Immunization",
        "id": "4cbbfca4-a85c-49bc-8418-12a2a64eeba0",
        "status": "completed",
        "vaccineCode": {
          "coding": [
            {
              "system": "http://snomed.info/sct",
              "code": "28721000087103",
              "display": "[DTaP] TRIPACEL"
            }
          ]
        },
        "patient": {
          "reference": "urn:uuid:8b2a115e-7f92-4bdb-afff-b491968272c0"
        },
        "occurrenceDateTime": "2025-03-25T00:00:00",
        "primarySource": true,
        "site": {
          "coding": [
            {
              "system": "http://terminology.hl7.org/CodeSystem/v2-0493",
              "code": "LA",
              "display": "Left arm"
            }
          ]
        },
        "route": {
          "coding": [
            {
              "system": "http://snomed.info/sct",
              "code": "78421000",
              "display": "Intramuscular: IM"
            }
          ]
        },
        "meta": {
          "profile": [
            "http://fhir.infoway-inforoute.ca/io/psca/StructureDefinition/Immunization-ps-ca"
          ]
        }
      }
    }
  ]
}