{
  "resourceType": "Bundle",
  "type": "document",
  "entry": [
    {
      "fullUrl": "urn:uuid:30182a41-ec65-41fb-98f6-3e60771560be",
      "resource": {
        "resourceType": "Composition",
        "id": "30182a41-ec65-41fb-98f6-3e60771560be",
        "status": "final",
        "type": {
          "coding": [
            {
              "system": "http://loinc.org",
              "code": "60591-5",
              "display": "Patient summary Document"
            }
          ]
        },
        "subject": {
          "reference": "urn:uuid:3c3a649a-9f8e-4372-b35b-a8784ecf0c9c"
        },
        "date": "2025-07-01T16:14:47.904275+00:00",
        "author": [
          {
            "reference": "urn:uuid:psca-author-org",
            "display": "Wellness Way Hospital"
          }
        ],
        "title": "PS-CA Patient Summary",
        "custodian": {
          "reference": "urn:uuid:psca-author-org",
          "display": "Wellness Way Hospital"
        },
        "section": [
          {
            "title": "Allergies",
            "code": {
              "coding": [
                {
                  "system": "http://loinc.org",
                  "code": "48765-2",
                  "display": "Allergies and adverse reactions Document"
                }
              ]
            },
            "entry": [
              {
                "reference": "urn:uuid:488ce3b7-1c75-4f31-bc4b-fff889785cbc"
              },
              {
                "reference": "urn:uuid:916b67b6-ef8b-46ed-a814-aedfbf6c5f7a"
              },
              {
                "reference": "urn:uuid:5a787136-5c8e-4ef8-ab33-7178ed7d3618"
              }
            ]
          },
          {
            "title": "Medications",
            "code": {
              "coding": [
                {
                  "system": "http://loinc.org",
                  "code": "10160-0",
                  "display": "History of Medication use Narrative"
                }
              ]
            },
            "entry": [
              {
                "reference": "urn:uuid:2deb0e1f-5e46-4db1-b391-b011b968c807"
              },
              {
                "reference": "urn:uuid:be916bd0-436a-44fd-bd22-83b5bf1d3cb3"
              },
              {
                "reference": "urn:uuid:e4cbdfe0-2e70-4b6b-8753-7d2269026bc6"
              }
            ]
          },
          {
            "title": "Immunizations",
            "code": {
              "coding": [
                {
                  "system": "http://loinc.org",
                  "code": "11369-6",
                  "display": "History of Immunization Narrative"
                }
              ]
            },
            "entry": [
              {
                "reference": "urn:uuid:b2b144b9-8dfc-4720-8040-4332009f3f74"
              },
              {
                "reference": "urn:uuid:aea798d4-d8de-4db0-a9ac-3f9f83157d31"
              },
              {
                "reference": "urn:uuid:4859127e-1d85-4336-8348-418a2c4df692"
              },
              {
                "reference": "urn:uuid:2d2011ea-1af6-4a15-a28b-8f311d0b356d"
              },
              {
                "reference": "urn:uuid:e0c6099a-0a70-47c8-abae-19a077bff725"
              },
              {
                "reference": "urn:uuid:183f8433-9cf5-4390-8038-beecd8142c9e"
              }
            ]
          }
        ],
        "meta": {
          "profile": [
            "http://fhir.infoway-inforoute.ca/io/psca/StructureDefinition/Composition-ps-ca"
          ]
        }
      }
    },
    {
      "fullUrl": "urn:uuid:3c3a649a-9f8e-4372-b35b-a8784ecf0c9c",
      "resource": {
        "resourceType": "Patient",
        "id": "3c3a649a-9f8e-4372-b35b-a8784ecf0c9c",
        "identifier": [
          {
            "system": "http://example.org/healthcardnumber",
            "value": "999 269 371"
          }
        ],
        "name": [
          {
            "family": "Cat",
            "given": [
              "Sylvester"
            ]
          }
        ],
        "telecom": [
          {
            "system": "phone",
            "value": "894-738-3473 x597",
            "use": "home"
          },
          {
            "system": "email",
            "value": "Sylvester.Cat@outlook.com",
            "use": "home"
          }
        ],
        "gender": "other",
        "birthDate": "1981-12-08",
        "address": [
          {
            "line": [
              "9340 Smith Valley"
            ],
            "city": "West Nicolebury",
            "state": "New Brunswick",
            "postalCode": "S5L 4T7",
            "country": "Canada"
          }
        ],
        "photo": [
          {
            "contentType": "image/jpeg",
            "data": ""
          }
        ],
        "meta": {
          "profile": [
            "http://fhir.infoway-inforoute.ca/io/psca/StructureDefinition/Patient-ps-ca"
          ]
        }
      }
    },
    {
      "fullUrl": "urn:uuid:psca-author-org",
      "resource": {
        "resourceType": "Organization",
        "id": "psca-author-org",
        "name": "Wellness Way Hospital",
        "meta": {
          "profile": [
            "http://fhir.infoway-inforoute.ca/io/psca/StructureDefinition/Organization-ps-ca"
          ]
        }
      }
    },
    {
      "fullUrl": "urn:uuid:488ce3b7-1c75-4f31-bc4b-fff889785cbc",
      "resource": {
        "resourceType": "AllergyIntolerance",
        "id": "488ce3b7-1c75-4f31-bc4b-fff889785cbc",
        "clinicalStatus": {
          "coding": [
            {
              "system": "http://terminology.hl7.org/CodeSystem/allergyintolerance-clinical",
              "code": "active"
            }
          ]
        },
        "verificationStatus": {
          "coding": [
            {
              "system": "http://terminology.hl7.org/CodeSystem/allergyintolerance-verification",
              "code": "confirmed"
            }
          ]
        },
        "code": {
          "coding": [
            {
              "system": "http://snomed.info/sct",
              "code": "294954003",
              "display": "Bee venom"
            }
          ]
        },
        "patient": {
          "reference": "urn:uuid:3c3a649a-9f8e-4372-b35b-a8784ecf0c9c"
        },
        "reaction": [
          {
            "manifestation": [
              {
                "coding": [
                  {
                    "system": "http://snomed.info/sct",
                    "code": "422400008",
                    "display": "Rash"
                  }
                ]
              }
            ],
            "severity": "mild"
          }
        ],
        "meta": {
          "profile": [
            "http://fhir.infoway-inforoute.ca/io/psca/StructureDefinition/AllergyIntolerance-ps-ca"
          ]
        }
      }
    },
    {
      "fullUrl": "urn:uuid:916b67b6-ef8b-46ed-a814-aedfbf6c5f7a",
      "resource": {
        "resourceType": "AllergyIntolerance",
        "id": "916b67b6-ef8b-46ed-a814-aedfbf6c5f7a",
        "clinicalStatus": {
          "coding": [
            {
              "system": "http://terminology.hl7.org/CodeSystem/allergyintolerance-clinical",
              "code": "active"
            }
          ]
        },
        "verificationStatus": {
          "coding": [
            {
              "system": "http://terminology.hl7.org/CodeSystem/allergyintolerance-verification",
              "code": "confirmed"
            }
          ]
        },
        "code": {
          "coding": [
            {
              "system": "http://snomed.info/sct",
              "code": "91930004",
              "display": "Latex"
            }
          ]
        },
        "patient": {
          "reference": "urn:uuid:3c3a649a-9f8e-4372-b35b-a8784ecf0c9c"
        },
        "reaction": [
          {
            "manifestation": [
              {
                "coding": [
                  {
                    "system": "http://snomed.info/sct",
                    "code": "247472004",
                    "display": "Hives"
                  }
                ]
              }
            ],
            "severity": "moderate"
          }
        ],
        "meta": {
          "profile": [
            "http://fhir.infoway-inforoute.ca/io/psca/StructureDefinition/AllergyIntolerance-ps-ca"
          ]
        }
      }
    },
    {
      "fullUrl": "urn:uuid:5a787136-5c8e-4ef8-ab33-7178ed7d3618",
      "resource": {
        "resourceType": "AllergyIntolerance",
        "id": "5a787136-5c8e-4ef8-ab33-7178ed7d3618",
        "clinicalStatus": {
          "coding": [
            {
              "system": "http://terminology.hl7.org/CodeSystem/allergyintolerance-clinical",
              "code": "active"
            }
          ]
        },
        "verificationStatus": {
          "coding": [
            {
              "system": "http://terminology.hl7.org/CodeSystem/allergyintolerance-verification",
              "code": "confirmed"
            }
          ]
        },
        "code": {
          "coding": [
            {
              "system": "http://snomed.info/sct",
              "code": "91936005",
              "display": "Penicillin"
            }
          ]
        },
        "patient": {
          "reference": "urn:uuid:3c3a649a-9f8e-4372-b35b-a8784ecf0c9c"
        },
        "reaction": [
          {
            "manifestation": [
              {
                "coding": [
                  {
                    "system": "http://snomed.info/sct",
                    "code": "247472004",
                    "display": "Hives"
                  }
                ]
              }
            ],
            "severity": "severe"
          }
        ],
        "meta": {
          "profile": [
            "http://fhir.infoway-inforoute.ca/io/psca/StructureDefinition/AllergyIntolerance-ps-ca"
          ]
        }
      }
    },
    {
      "fullUrl": "urn:uuid:2deb0e1f-5e46-4db1-b391-b011b968c807",
      "resource": {
        "resourceType": "MedicationStatement",
        "id": "2deb0e1f-5e46-4db1-b391-b011b968c807",
        "status": "active",
        "medicationCodeableConcept": {
          "coding": [
            {
              "system": "http://terminology.hl7.org/CodeSystem/hc-CCDD",
              "code": "9000973",
              "display": "\talendronic acid (alendronate sodium) 70 mg oral tablet"
            }
          ]
        },
        "subject": {
          "reference": "urn:uuid:3c3a649a-9f8e-4372-b35b-a8784ecf0c9c"
        },
        "meta": {
          "profile": [
            "http://fhir.infoway-inforoute.ca/io/psca/StructureDefinition/MedicationStatement-ps-ca"
          ]
        }
      }
    },
    {
      "fullUrl": "urn:uuid:be916bd0-436a-44fd-bd22-83b5bf1d3cb3",
      "resource": {
        "resourceType": "MedicationStatement",
        "id": "be916bd0-436a-44fd-bd22-83b5bf1d3cb3",
        "status": "active",
        "medicationCodeableConcept": {
          "coding": [
            {
              "system": "http://terminology.hl7.org/CodeSystem/hc-CCDD",
              "code": "9009619",
              "display": "furosemide 40 mg oral tablet"
            }
          ]
        },
        "subject": {
          "reference": "urn:uuid:3c3a649a-9f8e-4372-b35b-a8784ecf0c9c"
        },
        "meta": {
          "profile": [
            "http://fhir.infoway-inforoute.ca/io/psca/StructureDefinition/MedicationStatement-ps-ca"
          ]
        }
      }
    },
    {
      "fullUrl": "urn:uuid:e4cbdfe0-2e70-4b6b-8753-7d2269026bc6",
      "resource": {
        "resourceType": "MedicationStatement",
        "id": "e4cbdfe0-2e70-4b6b-8753-7d2269026bc6",
        "status": "active",
        "medicationCodeableConcept": {
          "coding": [
            {
              "system": "http://terminology.hl7.org/CodeSystem/hc-CCDD",
              "code": "9000336",
              "display": "omeprazole 20 mg gastro-resistant capsule"
            }
          ]
        },
        "subject": {
          "reference": "urn:uuid:3c3a649a-9f8e-4372-b35b-a8784ecf0c9c"
        },
        "meta": {
          "profile": [
            "http://fhir.infoway-inforoute.ca/io/psca/StructureDefinition/MedicationStatement-ps-ca"
          ]
        }
      }
    },
    {
      "fullUrl": "urn:uuid:b2b144b9-8dfc-4720-8040-4332009f3f74",
      "resource": {
        "resourceType": "Immunization",
        "id": "b2b144b9-8dfc-4720-8040-4332009f3f74",
        "status": "completed",
        "vaccineCode": {
          "coding": [
            {
              "system": "http://snomed.info/sct",
              "code": "7361000087100",
              "display": "[IPV] IMOVAX POLIO"
            }
          ]
        },
        "patient": {
          "reference": "urn:uuid:3c3a649a-9f8e-4372-b35b-a8784ecf0c9c"
        },
        "occurrenceDateTime": "2024-05-04T00:00:00",
        "primarySource": true,
        "site": {
          "coding": [
            {
              "system": "http://terminology.hl7.org/CodeSystem/v2-0493",
              "code": "LA",
              "display": "Left arm"
            }
          ]
        },
        "route": {
          "coding": [
            {
              "system": "http://snomed.info/sct",
              "code": "78421000",
              "display": "Intramuscular: IM"
            }
          ]
        },
        "meta": {
          "profile": [
            "http://fhir.infoway-inforoute.ca/io/psca/StructureDefinition/Immunization-ps-ca"
          ]
        }
      }
    },
    {
      "fullUrl": "urn:uuid:aea798d4-d8de-4db0-a9ac-3f9f83157d31",
      "resource": {
        "resourceType": "Immunization",
        "id": "aea798d4-d8de-4db0-a9ac-3f9f83157d31",
        "status": "completed",
        "vaccineCode": {
          "coding": [
            {
              "system": "http://snomed.info/sct",
              "code": "37651000087101",
              "display": "[COVID-19] SPIKEVAX Bivalent (Original / Omicron BA.4/BA.5) 0.10 mg/mL"
            }
          ]
        },
        "patient": {
          "reference": "urn:uuid:3c3a649a-9f8e-4372-b35b-a8784ecf0c9c"
        },
        "occurrenceDateTime": "2023-05-18T00:00:00",
        "primarySource": true,
        "site": {
          "coding": [
            {
              "system": "http://terminology.hl7.org/CodeSystem/v2-0493",
              "code": "LA",
              "display": "Left arm"
            }
          ]
        },
        "route": {
          "coding": [
            {
              "system": "http://snomed.info/sct",
              "code": "78421000",
              "display": "Intramuscular: IM"
            }
          ]
        },
        "meta": {
          "profile": [
            "http://fhir.infoway-inforoute.ca/io/psca/StructureDefinition/Immunization-ps-ca"
          ]
        }
      }
    },
    {
      "fullUrl": "urn:uuid:4859127e-1d85-4336-8348-418a2c4df692",
      "resource": {
        "resourceType": "Immunization",
        "id": "4859127e-1d85-4336-8348-418a2c4df692",
        "status": "completed",
        "vaccineCode": {
          "coding": [
            {
              "system": "http://snomed.info/sct",
              "code": "28581000087106",
              "display": "[COVID-19] COMIRNATY (original strain) 30 mcg/0.3 mL"
            }
          ]
        },
        "patient": {
          "reference": "urn:uuid:3c3a649a-9f8e-4372-b35b-a8784ecf0c9c"
        },
        "occurrenceDateTime": "2020-10-20T00:00:00",
        "primarySource": true,
        "site": {
          "coding": [
            {
              "system": "http://terminology.hl7.org/CodeSystem/v2-0493",
              "code": "RA",
              "display": "Right arm"
            }
          ]
        },
        "route": {
          "coding": [
            {
              "system": "http://snomed.info/sct",
              "code": "78421000",
              "display": "Intramuscular: IM"
            }
          ]
        },
        "meta": {
          "profile": [
            "http://fhir.infoway-inforoute.ca/io/psca/StructureDefinition/Immunization-ps-ca"
          ]
        }
      }
    },
    {
      "fullUrl": "urn:uuid:2d2011ea-1af6-4a15-a28b-8f311d0b356d",
      "resource": {
        "resourceType": "Immunization",
        "id": "2d2011ea-1af6-4a15-a28b-8f311d0b356d",
        "status": "completed",
        "vaccineCode": {
          "coding": [
            {
              "system": "http://snomed.info/sct",
              "code": "24381000087107",
              "display": "[Inf] AFLURIA TETRA"
            }
          ]
        },
        "patient": {
          "reference": "urn:uuid:3c3a649a-9f8e-4372-b35b-a8784ecf0c9c"
        },
        "occurrenceDateTime": "2023-05-06T00:00:00",
        "primarySource": true,
        "site": {
          "coding": [
            {
              "system": "http://terminology.hl7.org/CodeSystem/v2-0493",
              "code": "RA",
              "display": "Right arm"
            }
          ]
        },
        "route": {
          "coding": [
            {
              "system": "http://snomed.info/sct",
              "code": "78421000",
              "display": "Intramuscular: IM"
            }
          ]
        },
        "meta": {
          "profile": [
            "http://fhir.infoway-inforoute.ca/io/psca/StructureDefinition/Immunization-ps-ca"
          ]
        }
      }
    },
    {
      "fullUrl": "urn:uuid:e0c6099a-0a70-47c8-abae-19a077bff725",
      "resource": {
        "resourceType": "Immunization",
        "id": "e0c6099a-0a70-47c8-abae-19a077bff725",
        "status": "completed",
        "vaccineCode": {
          "coding": [
            {
              "system": "http://snomed.info/sct",
              "code": "31541000087105",
              "display": "[Var] VARILRIX"
            }
          ]
        },
        "patient": {
          "reference": "urn:uuid:3c3a649a-9f8e-4372-b35b-a8784ecf0c9c"
        },
        "occurrenceDateTime": "2024-10-19T00:00:00",
        "primarySource": true,
        "site": {
          "coding": [
            {
              "system": "http://terminology.hl7.org/CodeSystem/v2-0493",
              "code": "RA",
              "display": "Right arm"
            }
          ]
        },
        "route": {
          "coding": [
            {
              "system": "http://snomed.info/sct",
              "code": "78421000",
              "display": "Intramuscular: IM"
            }
          ]
        },
        "meta": {
          "profile": [
            "http://fhir.infoway-inforoute.ca/io/psca/StructureDefinition/Immunization-ps-ca"
          ]
        }
      }
    },
    {
      "fullUrl": "urn:uuid:183f8433-9cf5-4390-8038-beecd8142c9e",
      "resource": {
        "resourceType": "Immunization",
        "id": "183f8433-9cf5-4390-8038-beecd8142c9e",
        "status": "completed",
        "vaccineCode": {
          "coding": [
            {
              "system": "http://snomed.info/sct",
              "code": "28581000087106",
              "display": "[COVID-19] COMIRNATY (original strain) 30 mcg/0.3 mL"
            }
          ]
        },
        "patient": {
          "reference": "urn:uuid:3c3a649a-9f8e-4372-b35b-a8784ecf0c9c"
        },
        "occurrenceDateTime": "2020-07-29T00:00:00",
        "primarySource": true,
        "site": {
          "coding": [
            {
              "system": "http://terminology.hl7.org/CodeSystem/v2-0493",
              "code": "RA",
              "display": "Right arm"
            }
          ]
        },
        "route": {
          "coding": [
            {
              "system": "http://snomed.info/sct",
              "code": "78421000",
              "display": "Intramuscular: IM"
            }
          ]
        },
        "meta": {
          "profile": [
            "http://fhir.infoway-inforoute.ca/io/psca/StructureDefinition/Immunization-ps-ca"
          ]
        }
      }
    }
  ]
}