{
  "resourceType": "Bundle",
  "type": "document",
  "entry": [
    {
      "fullUrl": "urn:uuid:f122ee13-1ff5-472b-bcfc-d8abea83e08d",
      "resource": {
        "resourceType": "Composition",
        "id": "f122ee13-1ff5-472b-bcfc-d8abea83e08d",
        "status": "final",
        "type": {
          "coding": [
            {
              "system": "http://loinc.org",
              "code": "60591-5",
              "display": "Patient summary Document"
            }
          ]
        },
        "subject": {
          "reference": "urn:uuid:48387dc4-9f7e-4eb0-8d19-9480de6e959f"
        },
        "date": "2025-06-30T16:25:30.533128+00:00",
        "author": [
          {
            "reference": "urn:uuid:psca-author-org",
            "display": "Wellness Way Hospital"
          }
        ],
        "title": "PS-CA Patient Summary",
        "custodian": {
          "reference": "urn:uuid:psca-author-org",
          "display": "Wellness Way Hospital"
        },
        "section": [
          {
            "title": "Allergies",
            "code": {
              "coding": [
                {
                  "system": "http://loinc.org",
                  "code": "48765-2",
                  "display": "Allergies and adverse reactions Document"
                }
              ]
            },
            "entry": [
              {
                "reference": "urn:uuid:d5c5b7bc-6046-494c-affa-6f668669205c"
              },
              {
                "reference": "urn:uuid:79d30b80-3251-4204-903a-d85df7ab9bd2"
              }
            ]
          },
          {
            "title": "Medications",
            "code": {
              "coding": [
                {
                  "system": "http://loinc.org",
                  "code": "10160-0",
                  "display": "History of Medication use Narrative"
                }
              ]
            },
            "entry": [
              {
                "reference": "urn:uuid:73aa0569-ccca-4d32-9122-2610722f591a"
              },
              {
                "reference": "urn:uuid:1cbcaac8-1e13-42a5-bc16-980bda72db0c"
              },
              {
                "reference": "urn:uuid:a92d772c-942b-426b-ab7d-9b4b792e6827"
              }
            ]
          },
          {
            "title": "Immunizations",
            "code": {
              "coding": [
                {
                  "system": "http://loinc.org",
                  "code": "11369-6",
                  "display": "History of Immunization Narrative"
                }
              ]
            },
            "entry": [
              {
                "reference": "urn:uuid:fae17fc6-4e1a-452c-9782-fa12edfdea36"
              },
              {
                "reference": "urn:uuid:13004148-5de6-426e-ab00-9cfc52c7cf13"
              },
              {
                "reference": "urn:uuid:f0f37976-e5d3-4a97-9789-03ff51f555bd"
              },
              {
                "reference": "urn:uuid:82d655e3-1aab-4647-917e-a946f073fdb1"
              },
              {
                "reference": "urn:uuid:8eca1e32-d683-4fae-bc2b-40a7df3632ca"
              },
              {
                "reference": "urn:uuid:32201680-b713-4827-aa14-cf771e5bc45e"
              },
              {
                "reference": "urn:uuid:04cc276d-2a4e-47f4-9116-a7bbf8889930"
              },
              {
                "reference": "urn:uuid:8100f543-9e2d-4d91-869a-95cfc1b0af68"
              },
              {
                "reference": "urn:uuid:d2827529-87b1-40ee-baa2-14bc28b735d0"
              },
              {
                "reference": "urn:uuid:680d9021-7483-4b13-ab9f-202d1fe68048"
              }
            ]
          }
        ]
      }
    },
    {
      "fullUrl": "urn:uuid:48387dc4-9f7e-4eb0-8d19-9480de6e959f",
      "resource": {
        "resourceType": "Patient",
        "id": "48387dc4-9f7e-4eb0-8d19-9480de6e959f",
        "identifier": [
          {
            "system": "http://example.org/healthcardnumber",
            "value": "999 806 305"
          }
        ],
        "name": [
          {
            "family": "Bird",
            "given": [
              "Woodstock"
            ]
          }
        ],
        "telecom": [
          {
            "system": "phone",
            "value": "1-472-779-0104",
            "use": "home"
          },
          {
            "system": "email",
            "value": "Woodstock.Bird@outlook.com",
            "use": "home"
          }
        ],
        "gender": "male",
        "birthDate": "2022-02-21",
        "address": [
          {
            "line": [
              "34332 Brandon Mountains Apt. 769"
            ],
            "city": "New Stacyland",
            "state": "Saskatchewan",
            "postalCode": "N4S 3H9",
            "country": "Canada"
          }
        ],
        "photo": [
          {
            "contentType": "image/jpeg",
            "data": ""
          }
        ]
      }
    },
    {
      "fullUrl": "urn:uuid:psca-author-org",
      "resource": {
        "resourceType": "Organization",
        "id": "psca-author-org",
        "name": "Wellness Way Hospital"
      }
    },
    {
      "fullUrl": "urn:uuid:d5c5b7bc-6046-494c-affa-6f668669205c",
      "resource": {
        "resourceType": "AllergyIntolerance",
        "id": "d5c5b7bc-6046-494c-affa-6f668669205c",
        "clinicalStatus": {
          "coding": [
            {
              "system": "http://terminology.hl7.org/CodeSystem/allergyintolerance-clinical",
              "code": "active"
            }
          ]
        },
        "verificationStatus": {
          "coding": [
            {
              "system": "http://terminology.hl7.org/CodeSystem/allergyintolerance-verification",
              "code": "confirmed"
            }
          ]
        },
        "code": {
          "coding": [
            {
              "system": "http://snomed.info/sct",
              "code": "282100009",
              "display": "Tree nuts"
            }
          ]
        },
        "patient": {
          "reference": "urn:uuid:48387dc4-9f7e-4eb0-8d19-9480de6e959f"
        },
        "reaction": [
          {
            "manifestation": [
              {
                "coding": [
                  {
                    "system": "http://snomed.info/sct",
                    "code": "422400008",
                    "display": "Rash"
                  }
                ]
              }
            ],
            "severity": "severe"
          }
        ]
      }
    },
    {
      "fullUrl": "urn:uuid:79d30b80-3251-4204-903a-d85df7ab9bd2",
      "resource": {
        "resourceType": "AllergyIntolerance",
        "id": "79d30b80-3251-4204-903a-d85df7ab9bd2",
        "clinicalStatus": {
          "coding": [
            {
              "system": "http://terminology.hl7.org/CodeSystem/allergyintolerance-clinical",
              "code": "active"
            }
          ]
        },
        "verificationStatus": {
          "coding": [
            {
              "system": "http://terminology.hl7.org/CodeSystem/allergyintolerance-verification",
              "code": "confirmed"
            }
          ]
        },
        "code": {
          "coding": [
            {
              "system": "http://snomed.info/sct",
              "code": "91937009",
              "display": "Ibuprofen"
            }
          ]
        },
        "patient": {
          "reference": "urn:uuid:48387dc4-9f7e-4eb0-8d19-9480de6e959f"
        },
        "reaction": [
          {
            "manifestation": [
              {
                "coding": [
                  {
                    "system": "http://snomed.info/sct",
                    "code": "247472004",
                    "display": "Hives"
                  }
                ]
              }
            ],
            "severity": "severe"
          }
        ]
      }
    },
    {
      "fullUrl": "urn:uuid:73aa0569-ccca-4d32-9122-2610722f591a",
      "resource": {
        "resourceType": "MedicationStatement",
        "id": "73aa0569-ccca-4d32-9122-2610722f591a",
        "status": "active",
        "medicationCodeableConcept": {
          "coding": [
            {
              "system": "http://terminology.hl7.org/CodeSystem/hc-CCDD",
              "code": "9000973",
              "display": "\talendronic acid (alendronate sodium) 70 mg oral tablet"
            }
          ]
        },
        "subject": {
          "reference": "urn:uuid:48387dc4-9f7e-4eb0-8d19-9480de6e959f"
        }
      }
    },
    {
      "fullUrl": "urn:uuid:1cbcaac8-1e13-42a5-bc16-980bda72db0c",
      "resource": {
        "resourceType": "MedicationStatement",
        "id": "1cbcaac8-1e13-42a5-bc16-980bda72db0c",
        "status": "active",
        "medicationCodeableConcept": {
          "coding": [
            {
              "system": "http://terminology.hl7.org/CodeSystem/hc-CCDD",
              "code": "9000021",
              "display": "warfarin sodium 5 mg oral tablet"
            }
          ]
        },
        "subject": {
          "reference": "urn:uuid:48387dc4-9f7e-4eb0-8d19-9480de6e959f"
        }
      }
    },
    {
      "fullUrl": "urn:uuid:a92d772c-942b-426b-ab7d-9b4b792e6827",
      "resource": {
        "resourceType": "MedicationStatement",
        "id": "a92d772c-942b-426b-ab7d-9b4b792e6827",
        "status": "active",
        "medicationCodeableConcept": {
          "coding": [
            {
              "system": "http://terminology.hl7.org/CodeSystem/hc-CCDD",
              "code": "9000398",
              "display": "amlodipine (amlodipine besylate) 10 mg oral tablet"
            }
          ]
        },
        "subject": {
          "reference": "urn:uuid:48387dc4-9f7e-4eb0-8d19-9480de6e959f"
        }
      }
    },
    {
      "fullUrl": "urn:uuid:fae17fc6-4e1a-452c-9782-fa12edfdea36",
      "resource": {
        "resourceType": "Immunization",
        "id": "fae17fc6-4e1a-452c-9782-fa12edfdea36",
        "status": "completed",
        "vaccineCode": {
          "coding": [
            {
              "system": "http://snomed.info/sct",
              "code": "28721000087103",
              "display": "[DTaP] TRIPACEL"
            }
          ]
        },
        "patient": {
          "reference": "urn:uuid:48387dc4-9f7e-4eb0-8d19-9480de6e959f"
        },
        "occurrenceDateTime": "2021-01-29T00:00:00",
        "primarySource": true,
        "site": {
          "coding": [
            {
              "system": "http://terminology.hl7.org/CodeSystem/v2-0493",
              "code": "RA",
              "display": "Right arm"
            }
          ]
        },
        "route": {
          "coding": [
            {
              "system": "http://snomed.info/sct",
              "code": "78421000",
              "display": "Intramuscular: IM"
            }
          ]
        }
      }
    },
    {
      "fullUrl": "urn:uuid:13004148-5de6-426e-ab00-9cfc52c7cf13",
      "resource": {
        "resourceType": "Immunization",
        "id": "13004148-5de6-426e-ab00-9cfc52c7cf13",
        "status": "completed",
        "vaccineCode": {
          "coding": [
            {
              "system": "http://snomed.info/sct",
              "code": "31541000087105",
              "display": "[Var] VARILRIX"
            }
          ]
        },
        "patient": {
          "reference": "urn:uuid:48387dc4-9f7e-4eb0-8d19-9480de6e959f"
        },
        "occurrenceDateTime": "2024-12-04T00:00:00",
        "primarySource": true,
        "site": {
          "coding": [
            {
              "system": "http://terminology.hl7.org/CodeSystem/v2-0493",
              "code": "RA",
              "display": "Right arm"
            }
          ]
        },
        "route": {
          "coding": [
            {
              "system": "http://snomed.info/sct",
              "code": "78421000",
              "display": "Intramuscular: IM"
            }
          ]
        }
      }
    },
    {
      "fullUrl": "urn:uuid:f0f37976-e5d3-4a97-9789-03ff51f555bd",
      "resource": {
        "resourceType": "Immunization",
        "id": "f0f37976-e5d3-4a97-9789-03ff51f555bd",
        "status": "completed",
        "vaccineCode": {
          "coding": [
            {
              "system": "http://snomed.info/sct",
              "code": "24381000087107",
              "display": "[Inf] AFLURIA TETRA"
            }
          ]
        },
        "patient": {
          "reference": "urn:uuid:48387dc4-9f7e-4eb0-8d19-9480de6e959f"
        },
        "occurrenceDateTime": "2022-04-21T00:00:00",
        "primarySource": true,
        "site": {
          "coding": [
            {
              "system": "http://terminology.hl7.org/CodeSystem/v2-0493",
              "code": "RA",
              "display": "Right arm"
            }
          ]
        },
        "route": {
          "coding": [
            {
              "system": "http://snomed.info/sct",
              "code": "78421000",
              "display": "Intramuscular: IM"
            }
          ]
        }
      }
    },
    {
      "fullUrl": "urn:uuid:82d655e3-1aab-4647-917e-a946f073fdb1",
      "resource": {
        "resourceType": "Immunization",
        "id": "82d655e3-1aab-4647-917e-a946f073fdb1",
        "status": "completed",
        "vaccineCode": {
          "coding": [
            {
              "system": "http://snomed.info/sct",
              "code": "37651000087101",
              "display": "[COVID-19] SPIKEVAX Bivalent (Original / Omicron BA.4/BA.5) 0.10 mg/mL"
            }
          ]
        },
        "patient": {
          "reference": "urn:uuid:48387dc4-9f7e-4eb0-8d19-9480de6e959f"
        },
        "occurrenceDateTime": "2020-10-16T00:00:00",
        "primarySource": true,
        "site": {
          "coding": [
            {
              "system": "http://terminology.hl7.org/CodeSystem/v2-0493",
              "code": "LA",
              "display": "Left arm"
            }
          ]
        },
        "route": {
          "coding": [
            {
              "system": "http://snomed.info/sct",
              "code": "78421000",
              "display": "Intramuscular: IM"
            }
          ]
        }
      }
    },
    {
      "fullUrl": "urn:uuid:8eca1e32-d683-4fae-bc2b-40a7df3632ca",
      "resource": {
        "resourceType": "Immunization",
        "id": "8eca1e32-d683-4fae-bc2b-40a7df3632ca",
        "status": "completed",
        "vaccineCode": {
          "coding": [
            {
              "system": "http://snomed.info/sct",
              "code": "28581000087106",
              "display": "[COVID-19] COMIRNATY (original strain) 30 mcg/0.3 mL"
            }
          ]
        },
        "patient": {
          "reference": "urn:uuid:48387dc4-9f7e-4eb0-8d19-9480de6e959f"
        },
        "occurrenceDateTime": "2021-12-05T00:00:00",
        "primarySource": true,
        "site": {
          "coding": [
            {
              "system": "http://terminology.hl7.org/CodeSystem/v2-0493",
              "code": "RA",
              "display": "Right arm"
            }
          ]
        },
        "route": {
          "coding": [
            {
              "system": "http://snomed.info/sct",
              "code": "78421000",
              "display": "Intramuscular: IM"
            }
          ]
        }
      }
    },
    {
      "fullUrl": "urn:uuid:32201680-b713-4827-aa14-cf771e5bc45e",
      "resource": {
        "resourceType": "Immunization",
        "id": "32201680-b713-4827-aa14-cf771e5bc45e",
        "status": "completed",
        "vaccineCode": {
          "coding": [
            {
              "system": "http://snomed.info/sct",
              "code": "7161000087102",
              "display": "[MMR] M-M-R II"
            }
          ]
        },
        "patient": {
          "reference": "urn:uuid:48387dc4-9f7e-4eb0-8d19-9480de6e959f"
        },
        "occurrenceDateTime": "2022-04-23T00:00:00",
        "primarySource": true,
        "site": {
          "coding": [
            {
              "system": "http://terminology.hl7.org/CodeSystem/v2-0493",
              "code": "RA",
              "display": "Right arm"
            }
          ]
        },
        "route": {
          "coding": [
            {
              "system": "http://snomed.info/sct",
              "code": "78421000",
              "display": "Intramuscular: IM"
            }
          ]
        }
      }
    },
    {
      "fullUrl": "urn:uuid:04cc276d-2a4e-47f4-9116-a7bbf8889930",
      "resource": {
        "resourceType": "Immunization",
        "id": "04cc276d-2a4e-47f4-9116-a7bbf8889930",
        "status": "completed",
        "vaccineCode": {
          "coding": [
            {
              "system": "http://snomed.info/sct",
              "code": "24381000087107",
              "display": "[Inf] AFLURIA TETRA"
            }
          ]
        },
        "patient": {
          "reference": "urn:uuid:48387dc4-9f7e-4eb0-8d19-9480de6e959f"
        },
        "occurrenceDateTime": "2021-04-16T00:00:00",
        "primarySource": true,
        "site": {
          "coding": [
            {
              "system": "http://terminology.hl7.org/CodeSystem/v2-0493",
              "code": "RA",
              "display": "Right arm"
            }
          ]
        },
        "route": {
          "coding": [
            {
              "system": "http://snomed.info/sct",
              "code": "78421000",
              "display": "Intramuscular: IM"
            }
          ]
        }
      }
    },
    {
      "fullUrl": "urn:uuid:8100f543-9e2d-4d91-869a-95cfc1b0af68",
      "resource": {
        "resourceType": "Immunization",
        "id": "8100f543-9e2d-4d91-869a-95cfc1b0af68",
        "status": "completed",
        "vaccineCode": {
          "coding": [
            {
              "system": "http://snomed.info/sct",
              "code": "7361000087100",
              "display": "[IPV] IMOVAX POLIO"
            }
          ]
        },
        "patient": {
          "reference": "urn:uuid:48387dc4-9f7e-4eb0-8d19-9480de6e959f"
        },
        "occurrenceDateTime": "2021-12-22T00:00:00",
        "primarySource": true,
        "site": {
          "coding": [
            {
              "system": "http://terminology.hl7.org/CodeSystem/v2-0493",
              "code": "RA",
              "display": "Right arm"
            }
          ]
        },
        "route": {
          "coding": [
            {
              "system": "http://snomed.info/sct",
              "code": "78421000",
              "display": "Intramuscular: IM"
            }
          ]
        }
      }
    },
    {
      "fullUrl": "urn:uuid:d2827529-87b1-40ee-baa2-14bc28b735d0",
      "resource": {
        "resourceType": "Immunization",
        "id": "d2827529-87b1-40ee-baa2-14bc28b735d0",
        "status": "completed",
        "vaccineCode": {
          "coding": [
            {
              "system": "http://snomed.info/sct",
              "code": "24381000087107",
              "display": "[Inf] AFLURIA TETRA"
            }
          ]
        },
        "patient": {
          "reference": "urn:uuid:48387dc4-9f7e-4eb0-8d19-9480de6e959f"
        },
        "occurrenceDateTime": "2020-06-23T00:00:00",
        "primarySource": true,
        "site": {
          "coding": [
            {
              "system": "http://terminology.hl7.org/CodeSystem/v2-0493",
              "code": "RA",
              "display": "Right arm"
            }
          ]
        },
        "route": {
          "coding": [
            {
              "system": "http://snomed.info/sct",
              "code": "78421000",
              "display": "Intramuscular: IM"
            }
          ]
        }
      }
    },
    {
      "fullUrl": "urn:uuid:680d9021-7483-4b13-ab9f-202d1fe68048",
      "resource": {
        "resourceType": "Immunization",
        "id": "680d9021-7483-4b13-ab9f-202d1fe68048",
        "status": "completed",
        "vaccineCode": {
          "coding": [
            {
              "system": "http://snomed.info/sct",
              "code": "28581000087106",
              "display": "[COVID-19] COMIRNATY (original strain) 30 mcg/0.3 mL"
            }
          ]
        },
        "patient": {
          "reference": "urn:uuid:48387dc4-9f7e-4eb0-8d19-9480de6e959f"
        },
        "occurrenceDateTime": "2021-10-07T00:00:00",
        "primarySource": true,
        "site": {
          "coding": [
            {
              "system": "http://terminology.hl7.org/CodeSystem/v2-0493",
              "code": "LA",
              "display": "Left arm"
            }
          ]
        },
        "route": {
          "coding": [
            {
              "system": "http://snomed.info/sct",
              "code": "78421000",
              "display": "Intramuscular: IM"
            }
          ]
        }
      }
    }
  ]
}