{
  "resourceType": "Bundle",
  "type": "document",
  "entry": [
    {
      "fullUrl": "urn:uuid:06eec9e4-e768-4a55-9012-18f1b4c9b683",
      "resource": {
        "resourceType": "Composition",
        "id": "06eec9e4-e768-4a55-9012-18f1b4c9b683",
        "status": "final",
        "type": {
          "coding": [
            {
              "system": "http://loinc.org",
              "code": "60591-5",
              "display": "Patient summary Document"
            }
          ]
        },
        "subject": {
          "reference": "urn:uuid:0a2890cd-3942-46a1-91c8-df181cb20fe5"
        },
        "date": "2025-07-03T14:56:37.753641+00:00",
        "author": [
          {
            "reference": "urn:uuid:53570ea3-0847-4b53-96c5-d694aa66e919",
            "display": "Wellness Way Hospital"
          }
        ],
        "title": "PS-CA Patient Summary",
        "custodian": {
          "reference": "urn:uuid:53570ea3-0847-4b53-96c5-d694aa66e919",
          "display": "Wellness Way Hospital"
        },
        "section": [
          {
            "title": "Allergies",
            "code": {
              "coding": [
                {
                  "system": "http://loinc.org",
                  "code": "48765-2",
                  "display": "Allergies and adverse reactions Document"
                }
              ]
            },
            "entry": [
              {
                "reference": "urn:uuid:2c16b9d4-ca96-49fd-b396-4f4b26c3ce7f"
              }
            ]
          },
          {
            "title": "Medications",
            "code": {
              "coding": [
                {
                  "system": "http://loinc.org",
                  "code": "10160-0",
                  "display": "History of Medication use Narrative"
                }
              ]
            },
            "entry": [
              {
                "reference": "urn:uuid:b5b56689-666d-418d-9812-d29ed4ca3ba4"
              }
            ]
          },
          {
            "title": "Immunizations",
            "code": {
              "coding": [
                {
                  "system": "http://loinc.org",
                  "code": "11369-6",
                  "display": "History of Immunization Narrative"
                }
              ]
            },
            "entry": [
              {
                "reference": "urn:uuid:cc9ebb29-ff17-4ba0-ab88-ba7bfc5a9cec"
              },
              {
                "reference": "urn:uuid:430d453b-c7fc-4327-a30f-f02d61fd591f"
              },
              {
                "reference": "urn:uuid:23c94725-fac8-4bbe-ad22-9271f7da872e"
              },
              {
                "reference": "urn:uuid:01924f94-bc75-4b74-bfce-8ebbae121d44"
              },
              {
                "reference": "urn:uuid:3ecead64-4c19-4230-9036-140d9e777a86"
              },
              {
                "reference": "urn:uuid:05c6007b-e7c4-43dc-b015-852ab88db942"
              },
              {
                "reference": "urn:uuid:8bce2130-06eb-4ff1-bf7a-409835770633"
              }
            ]
          }
        ]
      }
    },
    {
      "fullUrl": "urn:uuid:0a2890cd-3942-46a1-91c8-df181cb20fe5",
      "resource": {
        "resourceType": "Patient",
        "id": "0a2890cd-3942-46a1-91c8-df181cb20fe5",
        "identifier": [
          {
            "system": "http://example.org/healthcardnumber",
            "value": "999 873 847"
          }
        ],
        "name": [
          {
            "family": "Dog",
            "given": [
              "Snoopy"
            ]
          }
        ],
        "telecom": [
          {
            "system": "phone",
            "value": "+1 (115) 305-1522",
            "use": "home"
          },
          {
            "system": "email",
            "value": "Snoopy.Dog@outlook.com",
            "use": "home"
          }
        ],
        "gender": "male",
        "birthDate": "2014-06-12",
        "address": [
          {
            "line": [
              "957 Ramos Forest Suite 214"
            ],
            "city": "Matthewview",
            "state": "Alberta",
            "postalCode": "M6T 3B2",
            "country": "Canada"
          }
        ],
        "photo": [
          {
            "contentType": "image/jpeg",
            "data": ""
          }
        ]
      }
    },
    {
      "fullUrl": "urn:uuid:53570ea3-0847-4b53-96c5-d694aa66e919",
      "resource": {
        "resourceType": "Organization",
        "id": "53570ea3-0847-4b53-96c5-d694aa66e919",
        "name": "Wellness Way Hospital"
      }
    },
    {
      "fullUrl": "urn:uuid:2c16b9d4-ca96-49fd-b396-4f4b26c3ce7f",
      "resource": {
        "resourceType": "AllergyIntolerance",
        "id": "2c16b9d4-ca96-49fd-b396-4f4b26c3ce7f",
        "clinicalStatus": {
          "coding": [
            {
              "system": "http://terminology.hl7.org/CodeSystem/allergyintolerance-clinical",
              "code": "active"
            }
          ]
        },
        "verificationStatus": {
          "coding": [
            {
              "system": "http://terminology.hl7.org/CodeSystem/allergyintolerance-verification",
              "code": "confirmed"
            }
          ]
        },
        "code": {
          "coding": [
            {
              "system": "http://snomed.info/sct",
              "code": "233678006",
              "display": "Egg protein"
            }
          ]
        },
        "patient": {
          "reference": "urn:uuid:0a2890cd-3942-46a1-91c8-df181cb20fe5"
        },
        "reaction": [
          {
            "manifestation": [
              {
                "coding": [
                  {
                    "system": "http://snomed.info/sct",
                    "code": "271759003",
                    "display": "Wheezing"
                  }
                ]
              }
            ],
            "severity": "moderate"
          }
        ]
      }
    },
    {
      "fullUrl": "urn:uuid:b5b56689-666d-418d-9812-d29ed4ca3ba4",
      "resource": {
        "resourceType": "MedicationStatement",
        "id": "b5b56689-666d-418d-9812-d29ed4ca3ba4",
        "status": "active",
        "medicationCodeableConcept": {
          "coding": [
            {
              "system": "http://terminology.hl7.org/CodeSystem/hc-CCDD",
              "code": "2297795",
              "display": "APO-GLICLAZIDE MR (gliclazide 30 mg prolonged-release oral tablet) APOTEX INC"
            }
          ]
        },
        "subject": {
          "reference": "urn:uuid:0a2890cd-3942-46a1-91c8-df181cb20fe5"
        }
      }
    },
    {
      "fullUrl": "urn:uuid:cc9ebb29-ff17-4ba0-ab88-ba7bfc5a9cec",
      "resource": {
        "resourceType": "Immunization",
        "id": "cc9ebb29-ff17-4ba0-ab88-ba7bfc5a9cec",
        "status": "completed",
        "vaccineCode": {
          "coding": [
            {
              "system": "http://snomed.info/sct",
              "code": "28721000087103",
              "display": "[DTaP] TRIPACEL"
            }
          ]
        },
        "patient": {
          "reference": "urn:uuid:0a2890cd-3942-46a1-91c8-df181cb20fe5"
        },
        "occurrenceDateTime": "2024-08-13T00:00:00",
        "primarySource": true,
        "site": {
          "coding": [
            {
              "system": "http://terminology.hl7.org/CodeSystem/v2-0493",
              "code": "RA",
              "display": "Right arm"
            }
          ]
        },
        "route": {
          "coding": [
            {
              "system": "http://snomed.info/sct",
              "code": "78421000",
              "display": "Intramuscular: IM"
            }
          ]
        }
      }
    },
    {
      "fullUrl": "urn:uuid:430d453b-c7fc-4327-a30f-f02d61fd591f",
      "resource": {
        "resourceType": "Immunization",
        "id": "430d453b-c7fc-4327-a30f-f02d61fd591f",
        "status": "completed",
        "vaccineCode": {
          "coding": [
            {
              "system": "http://snomed.info/sct",
              "code": "28581000087106",
              "display": "[COVID-19] COMIRNATY (original strain) 30 mcg/0.3 mL"
            }
          ]
        },
        "patient": {
          "reference": "urn:uuid:0a2890cd-3942-46a1-91c8-df181cb20fe5"
        },
        "occurrenceDateTime": "2023-01-11T00:00:00",
        "primarySource": true,
        "site": {
          "coding": [
            {
              "system": "http://terminology.hl7.org/CodeSystem/v2-0493",
              "code": "RA",
              "display": "Right arm"
            }
          ]
        },
        "route": {
          "coding": [
            {
              "system": "http://snomed.info/sct",
              "code": "78421000",
              "display": "Intramuscular: IM"
            }
          ]
        }
      }
    },
    {
      "fullUrl": "urn:uuid:23c94725-fac8-4bbe-ad22-9271f7da872e",
      "resource": {
        "resourceType": "Immunization",
        "id": "23c94725-fac8-4bbe-ad22-9271f7da872e",
        "status": "completed",
        "vaccineCode": {
          "coding": [
            {
              "system": "http://snomed.info/sct",
              "code": "37651000087101",
              "display": "[COVID-19] SPIKEVAX Bivalent (Original / Omicron BA.4/BA.5) 0.10 mg/mL"
            }
          ]
        },
        "patient": {
          "reference": "urn:uuid:0a2890cd-3942-46a1-91c8-df181cb20fe5"
        },
        "occurrenceDateTime": "2023-06-05T00:00:00",
        "primarySource": true,
        "site": {
          "coding": [
            {
              "system": "http://terminology.hl7.org/CodeSystem/v2-0493",
              "code": "RA",
              "display": "Right arm"
            }
          ]
        },
        "route": {
          "coding": [
            {
              "system": "http://snomed.info/sct",
              "code": "78421000",
              "display": "Intramuscular: IM"
            }
          ]
        }
      }
    },
    {
      "fullUrl": "urn:uuid:01924f94-bc75-4b74-bfce-8ebbae121d44",
      "resource": {
        "resourceType": "Immunization",
        "id": "01924f94-bc75-4b74-bfce-8ebbae121d44",
        "status": "completed",
        "vaccineCode": {
          "coding": [
            {
              "system": "http://snomed.info/sct",
              "code": "51471000087104",
              "display": "[COVID-19] COMIRNATY Omicron XBB.1.5 30 mcg/0.3 mL"
            }
          ]
        },
        "patient": {
          "reference": "urn:uuid:0a2890cd-3942-46a1-91c8-df181cb20fe5"
        },
        "occurrenceDateTime": "2021-02-04T00:00:00",
        "primarySource": true,
        "site": {
          "coding": [
            {
              "system": "http://terminology.hl7.org/CodeSystem/v2-0493",
              "code": "LA",
              "display": "Left arm"
            }
          ]
        },
        "route": {
          "coding": [
            {
              "system": "http://snomed.info/sct",
              "code": "78421000",
              "display": "Intramuscular: IM"
            }
          ]
        }
      }
    },
    {
      "fullUrl": "urn:uuid:3ecead64-4c19-4230-9036-140d9e777a86",
      "resource": {
        "resourceType": "Immunization",
        "id": "3ecead64-4c19-4230-9036-140d9e777a86",
        "status": "completed",
        "vaccineCode": {
          "coding": [
            {
              "system": "http://snomed.info/sct",
              "code": "24381000087107",
              "display": "[Inf] AFLURIA TETRA"
            }
          ]
        },
        "patient": {
          "reference": "urn:uuid:0a2890cd-3942-46a1-91c8-df181cb20fe5"
        },
        "occurrenceDateTime": "2021-12-05T00:00:00",
        "primarySource": true,
        "site": {
          "coding": [
            {
              "system": "http://terminology.hl7.org/CodeSystem/v2-0493",
              "code": "LA",
              "display": "Left arm"
            }
          ]
        },
        "route": {
          "coding": [
            {
              "system": "http://snomed.info/sct",
              "code": "78421000",
              "display": "Intramuscular: IM"
            }
          ]
        }
      }
    },
    {
      "fullUrl": "urn:uuid:05c6007b-e7c4-43dc-b015-852ab88db942",
      "resource": {
        "resourceType": "Immunization",
        "id": "05c6007b-e7c4-43dc-b015-852ab88db942",
        "status": "completed",
        "vaccineCode": {
          "coding": [
            {
              "system": "http://snomed.info/sct",
              "code": "31541000087105",
              "display": "[Var] VARILRIX"
            }
          ]
        },
        "patient": {
          "reference": "urn:uuid:0a2890cd-3942-46a1-91c8-df181cb20fe5"
        },
        "occurrenceDateTime": "2024-11-18T00:00:00",
        "primarySource": true,
        "site": {
          "coding": [
            {
              "system": "http://terminology.hl7.org/CodeSystem/v2-0493",
              "code": "LA",
              "display": "Left arm"
            }
          ]
        },
        "route": {
          "coding": [
            {
              "system": "http://snomed.info/sct",
              "code": "78421000",
              "display": "Intramuscular: IM"
            }
          ]
        }
      }
    },
    {
      "fullUrl": "urn:uuid:8bce2130-06eb-4ff1-bf7a-409835770633",
      "resource": {
        "resourceType": "Immunization",
        "id": "8bce2130-06eb-4ff1-bf7a-409835770633",
        "status": "completed",
        "vaccineCode": {
          "coding": [
            {
              "system": "http://snomed.info/sct",
              "code": "28581000087106",
              "display": "[COVID-19] COMIRNATY (original strain) 30 mcg/0.3 mL"
            }
          ]
        },
        "patient": {
          "reference": "urn:uuid:0a2890cd-3942-46a1-91c8-df181cb20fe5"
        },
        "occurrenceDateTime": "2020-10-05T00:00:00",
        "primarySource": true,
        "site": {
          "coding": [
            {
              "system": "http://terminology.hl7.org/CodeSystem/v2-0493",
              "code": "RA",
              "display": "Right arm"
            }
          ]
        },
        "route": {
          "coding": [
            {
              "system": "http://snomed.info/sct",
              "code": "78421000",
              "display": "Intramuscular: IM"
            }
          ]
        }
      }
    }
  ]
}