{
  "resourceType": "Bundle",
  "type": "document",
  "entry": [
    {
      "fullUrl": "urn:uuid:00a007ff-e21e-4e82-a044-a2f5ee2374b7",
      "resource": {
        "resourceType": "Composition",
        "id": "00a007ff-e21e-4e82-a044-a2f5ee2374b7",
        "status": "final",
        "type": {
          "coding": [
            {
              "system": "http://loinc.org",
              "code": "60591-5",
              "display": "Patient summary Document"
            }
          ]
        },
        "subject": {
          "reference": "urn:uuid:fafae5fe-ac2e-4165-97d3-6093d5a71ad4"
        },
        "date": "2025-06-30T16:25:28.472165+00:00",
        "author": [
          {
            "reference": "urn:uuid:psca-author-org",
            "display": "Wellness Way Hospital"
          }
        ],
        "title": "PS-CA Patient Summary",
        "custodian": {
          "reference": "urn:uuid:psca-author-org",
          "display": "Wellness Way Hospital"
        },
        "section": [
          {
            "title": "Allergies",
            "code": {
              "coding": [
                {
                  "system": "http://loinc.org",
                  "code": "48765-2",
                  "display": "Allergies and adverse reactions Document"
                }
              ]
            },
            "entry": [
              {
                "reference": "urn:uuid:8b9108b1-e4ce-44b2-8d51-e21f4da56b0d"
              },
              {
                "reference": "urn:uuid:a87e92ef-2ef4-456f-97a8-262dfd019416"
              },
              {
                "reference": "urn:uuid:115825f7-a8d3-4315-8d51-96ec3f482fde"
              }
            ]
          },
          {
            "title": "Medications",
            "code": {
              "coding": [
                {
                  "system": "http://loinc.org",
                  "code": "10160-0",
                  "display": "History of Medication use Narrative"
                }
              ]
            },
            "entry": [
              {
                "reference": "urn:uuid:85d65ced-0f4a-481e-8c67-b40f06ba0c09"
              }
            ]
          },
          {
            "title": "Immunizations",
            "code": {
              "coding": [
                {
                  "system": "http://loinc.org",
                  "code": "11369-6",
                  "display": "History of Immunization Narrative"
                }
              ]
            },
            "entry": [
              {
                "reference": "urn:uuid:fb254d21-5e97-4de0-a7ec-b0990f982284"
              },
              {
                "reference": "urn:uuid:bc6ae582-dd88-4c4e-b5c6-f44357e0f5ea"
              },
              {
                "reference": "urn:uuid:1eb3a686-b072-4fea-981a-efb9683bc531"
              },
              {
                "reference": "urn:uuid:e6ae4fa0-8956-4282-a7a6-4fe86b56c410"
              },
              {
                "reference": "urn:uuid:e01a7d7d-139a-4f53-8363-e89f921c3746"
              },
              {
                "reference": "urn:uuid:5e23d879-2b41-473e-8c64-af145dd28c90"
              }
            ]
          }
        ]
      }
    },
    {
      "fullUrl": "urn:uuid:fafae5fe-ac2e-4165-97d3-6093d5a71ad4",
      "resource": {
        "resourceType": "Patient",
        "id": "fafae5fe-ac2e-4165-97d3-6093d5a71ad4",
        "identifier": [
          {
            "system": "http://example.org/healthcardnumber",
            "value": "999 471 999"
          }
        ],
        "name": [
          {
            "family": "Doo",
            "given": [
              "Scooby"
            ]
          }
        ],
        "telecom": [
          {
            "system": "phone",
            "value": "331 243 2921",
            "use": "home"
          },
          {
            "system": "email",
            "value": "Scooby.Doo@outlook.com",
            "use": "home"
          }
        ],
        "gender": "other",
        "birthDate": "1990-06-18",
        "address": [
          {
            "line": [
              "9911 William Curve"
            ],
            "city": "New Anthonyport",
            "state": "Saskatchewan",
            "postalCode": "T4N 7J4",
            "country": "Canada"
          }
        ],
        "photo": [
          {
            "contentType": "image/jpeg",
            "data": ""
          }
        ]
      }
    },
    {
      "fullUrl": "urn:uuid:psca-author-org",
      "resource": {
        "resourceType": "Organization",
        "id": "psca-author-org",
        "name": "Wellness Way Hospital"
      }
    },
    {
      "fullUrl": "urn:uuid:8b9108b1-e4ce-44b2-8d51-e21f4da56b0d",
      "resource": {
        "resourceType": "AllergyIntolerance",
        "id": "8b9108b1-e4ce-44b2-8d51-e21f4da56b0d",
        "clinicalStatus": {
          "coding": [
            {
              "system": "http://terminology.hl7.org/CodeSystem/allergyintolerance-clinical",
              "code": "active"
            }
          ]
        },
        "verificationStatus": {
          "coding": [
            {
              "system": "http://terminology.hl7.org/CodeSystem/allergyintolerance-verification",
              "code": "confirmed"
            }
          ]
        },
        "code": {
          "coding": [
            {
              "system": "http://snomed.info/sct",
              "code": "227493005",
              "display": "Milk protein"
            }
          ]
        },
        "patient": {
          "reference": "urn:uuid:fafae5fe-ac2e-4165-97d3-6093d5a71ad4"
        },
        "reaction": [
          {
            "manifestation": [
              {
                "coding": [
                  {
                    "system": "http://snomed.info/sct",
                    "code": "422400008",
                    "display": "Rash"
                  }
                ]
              }
            ],
            "severity": "mild"
          }
        ]
      }
    },
    {
      "fullUrl": "urn:uuid:a87e92ef-2ef4-456f-97a8-262dfd019416",
      "resource": {
        "resourceType": "AllergyIntolerance",
        "id": "a87e92ef-2ef4-456f-97a8-262dfd019416",
        "clinicalStatus": {
          "coding": [
            {
              "system": "http://terminology.hl7.org/CodeSystem/allergyintolerance-clinical",
              "code": "active"
            }
          ]
        },
        "verificationStatus": {
          "coding": [
            {
              "system": "http://terminology.hl7.org/CodeSystem/allergyintolerance-verification",
              "code": "confirmed"
            }
          ]
        },
        "code": {
          "coding": [
            {
              "system": "http://snomed.info/sct",
              "code": "91937009",
              "display": "Ibuprofen"
            }
          ]
        },
        "patient": {
          "reference": "urn:uuid:fafae5fe-ac2e-4165-97d3-6093d5a71ad4"
        },
        "reaction": [
          {
            "manifestation": [
              {
                "coding": [
                  {
                    "system": "http://snomed.info/sct",
                    "code": "422400008",
                    "display": "Rash"
                  }
                ]
              }
            ],
            "severity": "mild"
          }
        ]
      }
    },
    {
      "fullUrl": "urn:uuid:115825f7-a8d3-4315-8d51-96ec3f482fde",
      "resource": {
        "resourceType": "AllergyIntolerance",
        "id": "115825f7-a8d3-4315-8d51-96ec3f482fde",
        "clinicalStatus": {
          "coding": [
            {
              "system": "http://terminology.hl7.org/CodeSystem/allergyintolerance-clinical",
              "code": "active"
            }
          ]
        },
        "verificationStatus": {
          "coding": [
            {
              "system": "http://terminology.hl7.org/CodeSystem/allergyintolerance-verification",
              "code": "confirmed"
            }
          ]
        },
        "code": {
          "coding": [
            {
              "system": "http://snomed.info/sct",
              "code": "91932001",
              "display": "Aspirin"
            }
          ]
        },
        "patient": {
          "reference": "urn:uuid:fafae5fe-ac2e-4165-97d3-6093d5a71ad4"
        },
        "reaction": [
          {
            "manifestation": [
              {
                "coding": [
                  {
                    "system": "http://snomed.info/sct",
                    "code": "271759003",
                    "display": "Wheezing"
                  }
                ]
              }
            ],
            "severity": "severe"
          }
        ]
      }
    },
    {
      "fullUrl": "urn:uuid:85d65ced-0f4a-481e-8c67-b40f06ba0c09",
      "resource": {
        "resourceType": "MedicationStatement",
        "id": "85d65ced-0f4a-481e-8c67-b40f06ba0c09",
        "status": "active",
        "medicationCodeableConcept": {
          "coding": [
            {
              "system": "http://terminology.hl7.org/CodeSystem/hc-CCDD",
              "code": "9000723",
              "display": "\tramipril 5 mg oral capsule"
            }
          ]
        },
        "subject": {
          "reference": "urn:uuid:fafae5fe-ac2e-4165-97d3-6093d5a71ad4"
        }
      }
    },
    {
      "fullUrl": "urn:uuid:fb254d21-5e97-4de0-a7ec-b0990f982284",
      "resource": {
        "resourceType": "Immunization",
        "id": "fb254d21-5e97-4de0-a7ec-b0990f982284",
        "status": "completed",
        "vaccineCode": {
          "coding": [
            {
              "system": "http://snomed.info/sct",
              "code": "28581000087106",
              "display": "[COVID-19] COMIRNATY (original strain) 30 mcg/0.3 mL"
            }
          ]
        },
        "patient": {
          "reference": "urn:uuid:fafae5fe-ac2e-4165-97d3-6093d5a71ad4"
        },
        "occurrenceDateTime": "2024-12-18T00:00:00",
        "primarySource": true,
        "site": {
          "coding": [
            {
              "system": "http://terminology.hl7.org/CodeSystem/v2-0493",
              "code": "RA",
              "display": "Right arm"
            }
          ]
        },
        "route": {
          "coding": [
            {
              "system": "http://snomed.info/sct",
              "code": "78421000",
              "display": "Intramuscular: IM"
            }
          ]
        }
      }
    },
    {
      "fullUrl": "urn:uuid:bc6ae582-dd88-4c4e-b5c6-f44357e0f5ea",
      "resource": {
        "resourceType": "Immunization",
        "id": "bc6ae582-dd88-4c4e-b5c6-f44357e0f5ea",
        "status": "completed",
        "vaccineCode": {
          "coding": [
            {
              "system": "http://snomed.info/sct",
              "code": "31541000087105",
              "display": "[Var] VARILRIX"
            }
          ]
        },
        "patient": {
          "reference": "urn:uuid:fafae5fe-ac2e-4165-97d3-6093d5a71ad4"
        },
        "occurrenceDateTime": "2023-10-17T00:00:00",
        "primarySource": true,
        "site": {
          "coding": [
            {
              "system": "http://terminology.hl7.org/CodeSystem/v2-0493",
              "code": "RA",
              "display": "Right arm"
            }
          ]
        },
        "route": {
          "coding": [
            {
              "system": "http://snomed.info/sct",
              "code": "78421000",
              "display": "Intramuscular: IM"
            }
          ]
        }
      }
    },
    {
      "fullUrl": "urn:uuid:1eb3a686-b072-4fea-981a-efb9683bc531",
      "resource": {
        "resourceType": "Immunization",
        "id": "1eb3a686-b072-4fea-981a-efb9683bc531",
        "status": "completed",
        "vaccineCode": {
          "coding": [
            {
              "system": "http://snomed.info/sct",
              "code": "7361000087100",
              "display": "[IPV] IMOVAX POLIO"
            }
          ]
        },
        "patient": {
          "reference": "urn:uuid:fafae5fe-ac2e-4165-97d3-6093d5a71ad4"
        },
        "occurrenceDateTime": "2024-08-24T00:00:00",
        "primarySource": true,
        "site": {
          "coding": [
            {
              "system": "http://terminology.hl7.org/CodeSystem/v2-0493",
              "code": "RA",
              "display": "Right arm"
            }
          ]
        },
        "route": {
          "coding": [
            {
              "system": "http://snomed.info/sct",
              "code": "78421000",
              "display": "Intramuscular: IM"
            }
          ]
        }
      }
    },
    {
      "fullUrl": "urn:uuid:e6ae4fa0-8956-4282-a7a6-4fe86b56c410",
      "resource": {
        "resourceType": "Immunization",
        "id": "e6ae4fa0-8956-4282-a7a6-4fe86b56c410",
        "status": "completed",
        "vaccineCode": {
          "coding": [
            {
              "system": "http://snomed.info/sct",
              "code": "7161000087102",
              "display": "[MMR] M-M-R II"
            }
          ]
        },
        "patient": {
          "reference": "urn:uuid:fafae5fe-ac2e-4165-97d3-6093d5a71ad4"
        },
        "occurrenceDateTime": "2023-08-31T00:00:00",
        "primarySource": true,
        "site": {
          "coding": [
            {
              "system": "http://terminology.hl7.org/CodeSystem/v2-0493",
              "code": "LA",
              "display": "Left arm"
            }
          ]
        },
        "route": {
          "coding": [
            {
              "system": "http://snomed.info/sct",
              "code": "78421000",
              "display": "Intramuscular: IM"
            }
          ]
        }
      }
    },
    {
      "fullUrl": "urn:uuid:e01a7d7d-139a-4f53-8363-e89f921c3746",
      "resource": {
        "resourceType": "Immunization",
        "id": "e01a7d7d-139a-4f53-8363-e89f921c3746",
        "status": "completed",
        "vaccineCode": {
          "coding": [
            {
              "system": "http://snomed.info/sct",
              "code": "51471000087104",
              "display": "[COVID-19] COMIRNATY Omicron XBB.1.5 30 mcg/0.3 mL"
            }
          ]
        },
        "patient": {
          "reference": "urn:uuid:fafae5fe-ac2e-4165-97d3-6093d5a71ad4"
        },
        "occurrenceDateTime": "2024-06-08T00:00:00",
        "primarySource": true,
        "site": {
          "coding": [
            {
              "system": "http://terminology.hl7.org/CodeSystem/v2-0493",
              "code": "LA",
              "display": "Left arm"
            }
          ]
        },
        "route": {
          "coding": [
            {
              "system": "http://snomed.info/sct",
              "code": "78421000",
              "display": "Intramuscular: IM"
            }
          ]
        }
      }
    },
    {
      "fullUrl": "urn:uuid:5e23d879-2b41-473e-8c64-af145dd28c90",
      "resource": {
        "resourceType": "Immunization",
        "id": "5e23d879-2b41-473e-8c64-af145dd28c90",
        "status": "completed",
        "vaccineCode": {
          "coding": [
            {
              "system": "http://snomed.info/sct",
              "code": "28721000087103",
              "display": "[DTaP] TRIPACEL"
            }
          ]
        },
        "patient": {
          "reference": "urn:uuid:fafae5fe-ac2e-4165-97d3-6093d5a71ad4"
        },
        "occurrenceDateTime": "2025-03-25T00:00:00",
        "primarySource": true,
        "site": {
          "coding": [
            {
              "system": "http://terminology.hl7.org/CodeSystem/v2-0493",
              "code": "LA",
              "display": "Left arm"
            }
          ]
        },
        "route": {
          "coding": [
            {
              "system": "http://snomed.info/sct",
              "code": "78421000",
              "display": "Intramuscular: IM"
            }
          ]
        }
      }
    }
  ]
}