{
  "resourceType": "Bundle",
  "type": "document",
  "entry": [
    {
      "fullUrl": "urn:uuid:5ed3304e-ea17-4b6a-b92d-7d9426b73c96",
      "resource": {
        "resourceType": "Composition",
        "id": "5ed3304e-ea17-4b6a-b92d-7d9426b73c96",
        "status": "final",
        "type": {
          "coding": [
            {
              "system": "http://loinc.org",
              "code": "60591-5",
              "display": "Patient summary Document"
            }
          ]
        },
        "subject": {
          "reference": "urn:uuid:e0c4501f-38b7-41fa-89fe-f06ba94a6a3c"
        },
        "date": "2025-07-01T16:14:48.073787+00:00",
        "author": [
          {
            "reference": "urn:uuid:psca-author-org",
            "display": "Wellness Way Hospital"
          }
        ],
        "title": "PS-CA Patient Summary",
        "custodian": {
          "reference": "urn:uuid:psca-author-org",
          "display": "Wellness Way Hospital"
        },
        "section": [
          {
            "title": "Allergies",
            "code": {
              "coding": [
                {
                  "system": "http://loinc.org",
                  "code": "48765-2",
                  "display": "Allergies and adverse reactions Document"
                }
              ]
            },
            "entry": [
              {
                "reference": "urn:uuid:2ccd5490-1a61-4748-bc87-34ac8de8339c"
              }
            ]
          },
          {
            "title": "Medications",
            "code": {
              "coding": [
                {
                  "system": "http://loinc.org",
                  "code": "10160-0",
                  "display": "History of Medication use Narrative"
                }
              ]
            },
            "entry": [
              {
                "reference": "urn:uuid:bc0a1062-d8f8-4976-87f4-113d8a43de20"
              }
            ]
          },
          {
            "title": "Immunizations",
            "code": {
              "coding": [
                {
                  "system": "http://loinc.org",
                  "code": "11369-6",
                  "display": "History of Immunization Narrative"
                }
              ]
            },
            "entry": [
              {
                "reference": "urn:uuid:c1480e1c-e673-4d68-915f-1e0f7bdb783d"
              },
              {
                "reference": "urn:uuid:7dcde498-a12b-43b7-aaf4-6fa5be8b0b62"
              },
              {
                "reference": "urn:uuid:570a2732-d2b7-45b0-a8aa-cc6de5506145"
              },
              {
                "reference": "urn:uuid:f9f7a714-4847-4dd0-b9de-d578978a2d3c"
              },
              {
                "reference": "urn:uuid:d277ed93-eb84-444b-8f37-96dcaea3920c"
              },
              {
                "reference": "urn:uuid:468c6509-4206-4db0-96e3-8755aad3b5c2"
              },
              {
                "reference": "urn:uuid:dd026651-06cd-4b74-b7aa-cf147ab5196e"
              }
            ]
          }
        ],
        "meta": {
          "profile": [
            "http://fhir.infoway-inforoute.ca/io/psca/StructureDefinition/Composition-ps-ca"
          ]
        }
      }
    },
    {
      "fullUrl": "urn:uuid:e0c4501f-38b7-41fa-89fe-f06ba94a6a3c",
      "resource": {
        "resourceType": "Patient",
        "id": "e0c4501f-38b7-41fa-89fe-f06ba94a6a3c",
        "identifier": [
          {
            "system": "http://example.org/healthcardnumber",
            "value": "999 873 847"
          }
        ],
        "name": [
          {
            "family": "Dog",
            "given": [
              "Snoopy"
            ]
          }
        ],
        "telecom": [
          {
            "system": "phone",
            "value": "+1 (115) 305-1522",
            "use": "home"
          },
          {
            "system": "email",
            "value": "Snoopy.Dog@outlook.com",
            "use": "home"
          }
        ],
        "gender": "male",
        "birthDate": "2014-06-12",
        "address": [
          {
            "line": [
              "957 Ramos Forest Suite 214"
            ],
            "city": "Matthewview",
            "state": "Alberta",
            "postalCode": "M6T 3B2",
            "country": "Canada"
          }
        ],
        "photo": [
          {
            "contentType": "image/jpeg",
            "data": ""
          }
        ],
        "meta": {
          "profile": [
            "http://fhir.infoway-inforoute.ca/io/psca/StructureDefinition/Patient-ps-ca"
          ]
        }
      }
    },
    {
      "fullUrl": "urn:uuid:psca-author-org",
      "resource": {
        "resourceType": "Organization",
        "id": "psca-author-org",
        "name": "Wellness Way Hospital",
        "meta": {
          "profile": [
            "http://fhir.infoway-inforoute.ca/io/psca/StructureDefinition/Organization-ps-ca"
          ]
        }
      }
    },
    {
      "fullUrl": "urn:uuid:2ccd5490-1a61-4748-bc87-34ac8de8339c",
      "resource": {
        "resourceType": "AllergyIntolerance",
        "id": "2ccd5490-1a61-4748-bc87-34ac8de8339c",
        "clinicalStatus": {
          "coding": [
            {
              "system": "http://terminology.hl7.org/CodeSystem/allergyintolerance-clinical",
              "code": "active"
            }
          ]
        },
        "verificationStatus": {
          "coding": [
            {
              "system": "http://terminology.hl7.org/CodeSystem/allergyintolerance-verification",
              "code": "confirmed"
            }
          ]
        },
        "code": {
          "coding": [
            {
              "system": "http://snomed.info/sct",
              "code": "233678006",
              "display": "Egg protein"
            }
          ]
        },
        "patient": {
          "reference": "urn:uuid:e0c4501f-38b7-41fa-89fe-f06ba94a6a3c"
        },
        "reaction": [
          {
            "manifestation": [
              {
                "coding": [
                  {
                    "system": "http://snomed.info/sct",
                    "code": "271759003",
                    "display": "Wheezing"
                  }
                ]
              }
            ],
            "severity": "moderate"
          }
        ],
        "meta": {
          "profile": [
            "http://fhir.infoway-inforoute.ca/io/psca/StructureDefinition/AllergyIntolerance-ps-ca"
          ]
        }
      }
    },
    {
      "fullUrl": "urn:uuid:bc0a1062-d8f8-4976-87f4-113d8a43de20",
      "resource": {
        "resourceType": "MedicationStatement",
        "id": "bc0a1062-d8f8-4976-87f4-113d8a43de20",
        "status": "active",
        "medicationCodeableConcept": {
          "coding": [
            {
              "system": "http://terminology.hl7.org/CodeSystem/hc-CCDD",
              "code": "2297795",
              "display": "APO-GLICLAZIDE MR (gliclazide 30 mg prolonged-release oral tablet) APOTEX INC"
            }
          ]
        },
        "subject": {
          "reference": "urn:uuid:e0c4501f-38b7-41fa-89fe-f06ba94a6a3c"
        },
        "meta": {
          "profile": [
            "http://fhir.infoway-inforoute.ca/io/psca/StructureDefinition/MedicationStatement-ps-ca"
          ]
        }
      }
    },
    {
      "fullUrl": "urn:uuid:c1480e1c-e673-4d68-915f-1e0f7bdb783d",
      "resource": {
        "resourceType": "Immunization",
        "id": "c1480e1c-e673-4d68-915f-1e0f7bdb783d",
        "status": "completed",
        "vaccineCode": {
          "coding": [
            {
              "system": "http://snomed.info/sct",
              "code": "28721000087103",
              "display": "[DTaP] TRIPACEL"
            }
          ]
        },
        "patient": {
          "reference": "urn:uuid:e0c4501f-38b7-41fa-89fe-f06ba94a6a3c"
        },
        "occurrenceDateTime": "2024-08-13T00:00:00",
        "primarySource": true,
        "site": {
          "coding": [
            {
              "system": "http://terminology.hl7.org/CodeSystem/v2-0493",
              "code": "RA",
              "display": "Right arm"
            }
          ]
        },
        "route": {
          "coding": [
            {
              "system": "http://snomed.info/sct",
              "code": "78421000",
              "display": "Intramuscular: IM"
            }
          ]
        },
        "meta": {
          "profile": [
            "http://fhir.infoway-inforoute.ca/io/psca/StructureDefinition/Immunization-ps-ca"
          ]
        }
      }
    },
    {
      "fullUrl": "urn:uuid:7dcde498-a12b-43b7-aaf4-6fa5be8b0b62",
      "resource": {
        "resourceType": "Immunization",
        "id": "7dcde498-a12b-43b7-aaf4-6fa5be8b0b62",
        "status": "completed",
        "vaccineCode": {
          "coding": [
            {
              "system": "http://snomed.info/sct",
              "code": "28581000087106",
              "display": "[COVID-19] COMIRNATY (original strain) 30 mcg/0.3 mL"
            }
          ]
        },
        "patient": {
          "reference": "urn:uuid:e0c4501f-38b7-41fa-89fe-f06ba94a6a3c"
        },
        "occurrenceDateTime": "2023-01-11T00:00:00",
        "primarySource": true,
        "site": {
          "coding": [
            {
              "system": "http://terminology.hl7.org/CodeSystem/v2-0493",
              "code": "RA",
              "display": "Right arm"
            }
          ]
        },
        "route": {
          "coding": [
            {
              "system": "http://snomed.info/sct",
              "code": "78421000",
              "display": "Intramuscular: IM"
            }
          ]
        },
        "meta": {
          "profile": [
            "http://fhir.infoway-inforoute.ca/io/psca/StructureDefinition/Immunization-ps-ca"
          ]
        }
      }
    },
    {
      "fullUrl": "urn:uuid:570a2732-d2b7-45b0-a8aa-cc6de5506145",
      "resource": {
        "resourceType": "Immunization",
        "id": "570a2732-d2b7-45b0-a8aa-cc6de5506145",
        "status": "completed",
        "vaccineCode": {
          "coding": [
            {
              "system": "http://snomed.info/sct",
              "code": "37651000087101",
              "display": "[COVID-19] SPIKEVAX Bivalent (Original / Omicron BA.4/BA.5) 0.10 mg/mL"
            }
          ]
        },
        "patient": {
          "reference": "urn:uuid:e0c4501f-38b7-41fa-89fe-f06ba94a6a3c"
        },
        "occurrenceDateTime": "2023-06-05T00:00:00",
        "primarySource": true,
        "site": {
          "coding": [
            {
              "system": "http://terminology.hl7.org/CodeSystem/v2-0493",
              "code": "RA",
              "display": "Right arm"
            }
          ]
        },
        "route": {
          "coding": [
            {
              "system": "http://snomed.info/sct",
              "code": "78421000",
              "display": "Intramuscular: IM"
            }
          ]
        },
        "meta": {
          "profile": [
            "http://fhir.infoway-inforoute.ca/io/psca/StructureDefinition/Immunization-ps-ca"
          ]
        }
      }
    },
    {
      "fullUrl": "urn:uuid:f9f7a714-4847-4dd0-b9de-d578978a2d3c",
      "resource": {
        "resourceType": "Immunization",
        "id": "f9f7a714-4847-4dd0-b9de-d578978a2d3c",
        "status": "completed",
        "vaccineCode": {
          "coding": [
            {
              "system": "http://snomed.info/sct",
              "code": "51471000087104",
              "display": "[COVID-19] COMIRNATY Omicron XBB.1.5 30 mcg/0.3 mL"
            }
          ]
        },
        "patient": {
          "reference": "urn:uuid:e0c4501f-38b7-41fa-89fe-f06ba94a6a3c"
        },
        "occurrenceDateTime": "2021-02-04T00:00:00",
        "primarySource": true,
        "site": {
          "coding": [
            {
              "system": "http://terminology.hl7.org/CodeSystem/v2-0493",
              "code": "LA",
              "display": "Left arm"
            }
          ]
        },
        "route": {
          "coding": [
            {
              "system": "http://snomed.info/sct",
              "code": "78421000",
              "display": "Intramuscular: IM"
            }
          ]
        },
        "meta": {
          "profile": [
            "http://fhir.infoway-inforoute.ca/io/psca/StructureDefinition/Immunization-ps-ca"
          ]
        }
      }
    },
    {
      "fullUrl": "urn:uuid:d277ed93-eb84-444b-8f37-96dcaea3920c",
      "resource": {
        "resourceType": "Immunization",
        "id": "d277ed93-eb84-444b-8f37-96dcaea3920c",
        "status": "completed",
        "vaccineCode": {
          "coding": [
            {
              "system": "http://snomed.info/sct",
              "code": "24381000087107",
              "display": "[Inf] AFLURIA TETRA"
            }
          ]
        },
        "patient": {
          "reference": "urn:uuid:e0c4501f-38b7-41fa-89fe-f06ba94a6a3c"
        },
        "occurrenceDateTime": "2021-12-05T00:00:00",
        "primarySource": true,
        "site": {
          "coding": [
            {
              "system": "http://terminology.hl7.org/CodeSystem/v2-0493",
              "code": "LA",
              "display": "Left arm"
            }
          ]
        },
        "route": {
          "coding": [
            {
              "system": "http://snomed.info/sct",
              "code": "78421000",
              "display": "Intramuscular: IM"
            }
          ]
        },
        "meta": {
          "profile": [
            "http://fhir.infoway-inforoute.ca/io/psca/StructureDefinition/Immunization-ps-ca"
          ]
        }
      }
    },
    {
      "fullUrl": "urn:uuid:468c6509-4206-4db0-96e3-8755aad3b5c2",
      "resource": {
        "resourceType": "Immunization",
        "id": "468c6509-4206-4db0-96e3-8755aad3b5c2",
        "status": "completed",
        "vaccineCode": {
          "coding": [
            {
              "system": "http://snomed.info/sct",
              "code": "31541000087105",
              "display": "[Var] VARILRIX"
            }
          ]
        },
        "patient": {
          "reference": "urn:uuid:e0c4501f-38b7-41fa-89fe-f06ba94a6a3c"
        },
        "occurrenceDateTime": "2024-11-18T00:00:00",
        "primarySource": true,
        "site": {
          "coding": [
            {
              "system": "http://terminology.hl7.org/CodeSystem/v2-0493",
              "code": "LA",
              "display": "Left arm"
            }
          ]
        },
        "route": {
          "coding": [
            {
              "system": "http://snomed.info/sct",
              "code": "78421000",
              "display": "Intramuscular: IM"
            }
          ]
        },
        "meta": {
          "profile": [
            "http://fhir.infoway-inforoute.ca/io/psca/StructureDefinition/Immunization-ps-ca"
          ]
        }
      }
    },
    {
      "fullUrl": "urn:uuid:dd026651-06cd-4b74-b7aa-cf147ab5196e",
      "resource": {
        "resourceType": "Immunization",
        "id": "dd026651-06cd-4b74-b7aa-cf147ab5196e",
        "status": "completed",
        "vaccineCode": {
          "coding": [
            {
              "system": "http://snomed.info/sct",
              "code": "28581000087106",
              "display": "[COVID-19] COMIRNATY (original strain) 30 mcg/0.3 mL"
            }
          ]
        },
        "patient": {
          "reference": "urn:uuid:e0c4501f-38b7-41fa-89fe-f06ba94a6a3c"
        },
        "occurrenceDateTime": "2020-10-05T00:00:00",
        "primarySource": true,
        "site": {
          "coding": [
            {
              "system": "http://terminology.hl7.org/CodeSystem/v2-0493",
              "code": "RA",
              "display": "Right arm"
            }
          ]
        },
        "route": {
          "coding": [
            {
              "system": "http://snomed.info/sct",
              "code": "78421000",
              "display": "Intramuscular: IM"
            }
          ]
        },
        "meta": {
          "profile": [
            "http://fhir.infoway-inforoute.ca/io/psca/StructureDefinition/Immunization-ps-ca"
          ]
        }
      }
    }
  ]
}