{
  "resourceType": "Bundle",
  "type": "document",
  "entry": [
    {
      "fullUrl": "urn:uuid:cf8d12e2-de7f-49de-8960-882df0651756",
      "resource": {
        "resourceType": "Composition",
        "id": "cf8d12e2-de7f-49de-8960-882df0651756",
        "status": "final",
        "type": {
          "coding": [
            {
              "system": "http://loinc.org",
              "code": "60591-5",
              "display": "Patient summary Document"
            }
          ]
        },
        "subject": {
          "reference": "urn:uuid:c36347a3-d693-4f30-923e-dc009a886239"
        },
        "date": "2025-07-01T16:14:47.273291+00:00",
        "author": [
          {
            "reference": "urn:uuid:psca-author-org",
            "display": "Wellness Way Hospital"
          }
        ],
        "title": "PS-CA Patient Summary",
        "custodian": {
          "reference": "urn:uuid:psca-author-org",
          "display": "Wellness Way Hospital"
        },
        "section": [
          {
            "title": "Allergies",
            "code": {
              "coding": [
                {
                  "system": "http://loinc.org",
                  "code": "48765-2",
                  "display": "Allergies and adverse reactions Document"
                }
              ]
            },
            "entry": [
              {
                "reference": "urn:uuid:1f3af39c-1335-44f7-af46-fc8e06790f14"
              },
              {
                "reference": "urn:uuid:3919fb2c-0cab-4297-977d-194fe124bb8d"
              }
            ]
          },
          {
            "title": "Medications",
            "code": {
              "coding": [
                {
                  "system": "http://loinc.org",
                  "code": "10160-0",
                  "display": "History of Medication use Narrative"
                }
              ]
            },
            "entry": [
              {
                "reference": "urn:uuid:ccf5f941-2391-4911-881e-afc537480f88"
              },
              {
                "reference": "urn:uuid:c22a454d-9fb3-4adf-8ae8-278ebb1ee5ec"
              }
            ]
          },
          {
            "title": "Immunizations",
            "code": {
              "coding": [
                {
                  "system": "http://loinc.org",
                  "code": "11369-6",
                  "display": "History of Immunization Narrative"
                }
              ]
            },
            "entry": [
              {
                "reference": "urn:uuid:fb67127a-d440-4fe7-9995-cc5fda59c26f"
              },
              {
                "reference": "urn:uuid:1831f0ca-002a-484a-b1d6-95d205556591"
              },
              {
                "reference": "urn:uuid:c55e61df-2434-4107-a446-16a9592d719b"
              },
              {
                "reference": "urn:uuid:e243b365-5b22-4806-9c68-6f41887b927a"
              },
              {
                "reference": "urn:uuid:6b7ab662-1981-4fd5-919b-d20fbd2ae707"
              }
            ]
          }
        ],
        "meta": {
          "profile": [
            "http://fhir.infoway-inforoute.ca/io/psca/StructureDefinition/Composition-ps-ca"
          ]
        }
      }
    },
    {
      "fullUrl": "urn:uuid:c36347a3-d693-4f30-923e-dc009a886239",
      "resource": {
        "resourceType": "Patient",
        "id": "c36347a3-d693-4f30-923e-dc009a886239",
        "identifier": [
          {
            "system": "http://example.org/healthcardnumber",
            "value": "999 878 645"
          }
        ],
        "name": [
          {
            "family": "Bunny",
            "given": [
              "Bugs"
            ]
          }
        ],
        "telecom": [
          {
            "system": "phone",
            "value": "1 (346) 291-4865",
            "use": "home"
          },
          {
            "system": "email",
            "value": "Bugs.Bunny@outlook.com",
            "use": "home"
          }
        ],
        "gender": "other",
        "birthDate": "1977-07-02",
        "address": [
          {
            "line": [
              "2160 Walker Viaduct"
            ],
            "city": "South Gregory",
            "state": "Newfoundland and Labrador",
            "postalCode": "P4S 9G7",
            "country": "Canada"
          }
        ],
        "photo": [
          {
            "contentType": "image/jpeg",
            "data": ""
          }
        ],
        "meta": {
          "profile": [
            "http://fhir.infoway-inforoute.ca/io/psca/StructureDefinition/Patient-ps-ca"
          ]
        }
      }
    },
    {
      "fullUrl": "urn:uuid:psca-author-org",
      "resource": {
        "resourceType": "Organization",
        "id": "psca-author-org",
        "name": "Wellness Way Hospital",
        "meta": {
          "profile": [
            "http://fhir.infoway-inforoute.ca/io/psca/StructureDefinition/Organization-ps-ca"
          ]
        }
      }
    },
    {
      "fullUrl": "urn:uuid:1f3af39c-1335-44f7-af46-fc8e06790f14",
      "resource": {
        "resourceType": "AllergyIntolerance",
        "id": "1f3af39c-1335-44f7-af46-fc8e06790f14",
        "clinicalStatus": {
          "coding": [
            {
              "system": "http://terminology.hl7.org/CodeSystem/allergyintolerance-clinical",
              "code": "active"
            }
          ]
        },
        "verificationStatus": {
          "coding": [
            {
              "system": "http://terminology.hl7.org/CodeSystem/allergyintolerance-verification",
              "code": "confirmed"
            }
          ]
        },
        "code": {
          "coding": [
            {
              "system": "http://snomed.info/sct",
              "code": "282100009",
              "display": "Tree nuts"
            }
          ]
        },
        "patient": {
          "reference": "urn:uuid:c36347a3-d693-4f30-923e-dc009a886239"
        },
        "reaction": [
          {
            "manifestation": [
              {
                "coding": [
                  {
                    "system": "http://snomed.info/sct",
                    "code": "422587007",
                    "display": "Vomiting"
                  }
                ]
              }
            ],
            "severity": "mild"
          }
        ],
        "meta": {
          "profile": [
            "http://fhir.infoway-inforoute.ca/io/psca/StructureDefinition/AllergyIntolerance-ps-ca"
          ]
        }
      }
    },
    {
      "fullUrl": "urn:uuid:3919fb2c-0cab-4297-977d-194fe124bb8d",
      "resource": {
        "resourceType": "AllergyIntolerance",
        "id": "3919fb2c-0cab-4297-977d-194fe124bb8d",
        "clinicalStatus": {
          "coding": [
            {
              "system": "http://terminology.hl7.org/CodeSystem/allergyintolerance-clinical",
              "code": "active"
            }
          ]
        },
        "verificationStatus": {
          "coding": [
            {
              "system": "http://terminology.hl7.org/CodeSystem/allergyintolerance-verification",
              "code": "confirmed"
            }
          ]
        },
        "code": {
          "coding": [
            {
              "system": "http://snomed.info/sct",
              "code": "233678006",
              "display": "Egg protein"
            }
          ]
        },
        "patient": {
          "reference": "urn:uuid:c36347a3-d693-4f30-923e-dc009a886239"
        },
        "reaction": [
          {
            "manifestation": [
              {
                "coding": [
                  {
                    "system": "http://snomed.info/sct",
                    "code": "271757001",
                    "display": "Anaphylaxis"
                  }
                ]
              }
            ],
            "severity": "mild"
          }
        ],
        "meta": {
          "profile": [
            "http://fhir.infoway-inforoute.ca/io/psca/StructureDefinition/AllergyIntolerance-ps-ca"
          ]
        }
      }
    },
    {
      "fullUrl": "urn:uuid:ccf5f941-2391-4911-881e-afc537480f88",
      "resource": {
        "resourceType": "MedicationStatement",
        "id": "ccf5f941-2391-4911-881e-afc537480f88",
        "status": "active",
        "medicationCodeableConcept": {
          "coding": [
            {
              "system": "http://terminology.hl7.org/CodeSystem/hc-CCDD",
              "code": "9009619",
              "display": "furosemide 40 mg oral tablet"
            }
          ]
        },
        "subject": {
          "reference": "urn:uuid:c36347a3-d693-4f30-923e-dc009a886239"
        },
        "meta": {
          "profile": [
            "http://fhir.infoway-inforoute.ca/io/psca/StructureDefinition/MedicationStatement-ps-ca"
          ]
        }
      }
    },
    {
      "fullUrl": "urn:uuid:c22a454d-9fb3-4adf-8ae8-278ebb1ee5ec",
      "resource": {
        "resourceType": "MedicationStatement",
        "id": "c22a454d-9fb3-4adf-8ae8-278ebb1ee5ec",
        "status": "active",
        "medicationCodeableConcept": {
          "coding": [
            {
              "system": "http://terminology.hl7.org/CodeSystem/hc-CCDD",
              "code": "9000973",
              "display": "\talendronic acid (alendronate sodium) 70 mg oral tablet"
            }
          ]
        },
        "subject": {
          "reference": "urn:uuid:c36347a3-d693-4f30-923e-dc009a886239"
        },
        "meta": {
          "profile": [
            "http://fhir.infoway-inforoute.ca/io/psca/StructureDefinition/MedicationStatement-ps-ca"
          ]
        }
      }
    },
    {
      "fullUrl": "urn:uuid:fb67127a-d440-4fe7-9995-cc5fda59c26f",
      "resource": {
        "resourceType": "Immunization",
        "id": "fb67127a-d440-4fe7-9995-cc5fda59c26f",
        "status": "completed",
        "vaccineCode": {
          "coding": [
            {
              "system": "http://snomed.info/sct",
              "code": "24381000087107",
              "display": "[Inf] AFLURIA TETRA"
            }
          ]
        },
        "patient": {
          "reference": "urn:uuid:c36347a3-d693-4f30-923e-dc009a886239"
        },
        "occurrenceDateTime": "2020-11-06T00:00:00",
        "primarySource": true,
        "site": {
          "coding": [
            {
              "system": "http://terminology.hl7.org/CodeSystem/v2-0493",
              "code": "RA",
              "display": "Right arm"
            }
          ]
        },
        "route": {
          "coding": [
            {
              "system": "http://snomed.info/sct",
              "code": "78421000",
              "display": "Intramuscular: IM"
            }
          ]
        },
        "meta": {
          "profile": [
            "http://fhir.infoway-inforoute.ca/io/psca/StructureDefinition/Immunization-ps-ca"
          ]
        }
      }
    },
    {
      "fullUrl": "urn:uuid:1831f0ca-002a-484a-b1d6-95d205556591",
      "resource": {
        "resourceType": "Immunization",
        "id": "1831f0ca-002a-484a-b1d6-95d205556591",
        "status": "completed",
        "vaccineCode": {
          "coding": [
            {
              "system": "http://snomed.info/sct",
              "code": "28721000087103",
              "display": "[DTaP] TRIPACEL"
            }
          ]
        },
        "patient": {
          "reference": "urn:uuid:c36347a3-d693-4f30-923e-dc009a886239"
        },
        "occurrenceDateTime": "2023-12-22T00:00:00",
        "primarySource": true,
        "site": {
          "coding": [
            {
              "system": "http://terminology.hl7.org/CodeSystem/v2-0493",
              "code": "LA",
              "display": "Left arm"
            }
          ]
        },
        "route": {
          "coding": [
            {
              "system": "http://snomed.info/sct",
              "code": "78421000",
              "display": "Intramuscular: IM"
            }
          ]
        },
        "meta": {
          "profile": [
            "http://fhir.infoway-inforoute.ca/io/psca/StructureDefinition/Immunization-ps-ca"
          ]
        }
      }
    },
    {
      "fullUrl": "urn:uuid:c55e61df-2434-4107-a446-16a9592d719b",
      "resource": {
        "resourceType": "Immunization",
        "id": "c55e61df-2434-4107-a446-16a9592d719b",
        "status": "completed",
        "vaccineCode": {
          "coding": [
            {
              "system": "http://snomed.info/sct",
              "code": "51471000087104",
              "display": "[COVID-19] COMIRNATY Omicron XBB.1.5 30 mcg/0.3 mL"
            }
          ]
        },
        "patient": {
          "reference": "urn:uuid:c36347a3-d693-4f30-923e-dc009a886239"
        },
        "occurrenceDateTime": "2021-08-10T00:00:00",
        "primarySource": true,
        "site": {
          "coding": [
            {
              "system": "http://terminology.hl7.org/CodeSystem/v2-0493",
              "code": "LA",
              "display": "Left arm"
            }
          ]
        },
        "route": {
          "coding": [
            {
              "system": "http://snomed.info/sct",
              "code": "78421000",
              "display": "Intramuscular: IM"
            }
          ]
        },
        "meta": {
          "profile": [
            "http://fhir.infoway-inforoute.ca/io/psca/StructureDefinition/Immunization-ps-ca"
          ]
        }
      }
    },
    {
      "fullUrl": "urn:uuid:e243b365-5b22-4806-9c68-6f41887b927a",
      "resource": {
        "resourceType": "Immunization",
        "id": "e243b365-5b22-4806-9c68-6f41887b927a",
        "status": "completed",
        "vaccineCode": {
          "coding": [
            {
              "system": "http://snomed.info/sct",
              "code": "37651000087101",
              "display": "[COVID-19] SPIKEVAX Bivalent (Original / Omicron BA.4/BA.5) 0.10 mg/mL"
            }
          ]
        },
        "patient": {
          "reference": "urn:uuid:c36347a3-d693-4f30-923e-dc009a886239"
        },
        "occurrenceDateTime": "2024-01-12T00:00:00",
        "primarySource": true,
        "site": {
          "coding": [
            {
              "system": "http://terminology.hl7.org/CodeSystem/v2-0493",
              "code": "LA",
              "display": "Left arm"
            }
          ]
        },
        "route": {
          "coding": [
            {
              "system": "http://snomed.info/sct",
              "code": "78421000",
              "display": "Intramuscular: IM"
            }
          ]
        },
        "meta": {
          "profile": [
            "http://fhir.infoway-inforoute.ca/io/psca/StructureDefinition/Immunization-ps-ca"
          ]
        }
      }
    },
    {
      "fullUrl": "urn:uuid:6b7ab662-1981-4fd5-919b-d20fbd2ae707",
      "resource": {
        "resourceType": "Immunization",
        "id": "6b7ab662-1981-4fd5-919b-d20fbd2ae707",
        "status": "completed",
        "vaccineCode": {
          "coding": [
            {
              "system": "http://snomed.info/sct",
              "code": "28581000087106",
              "display": "[COVID-19] COMIRNATY (original strain) 30 mcg/0.3 mL"
            }
          ]
        },
        "patient": {
          "reference": "urn:uuid:c36347a3-d693-4f30-923e-dc009a886239"
        },
        "occurrenceDateTime": "2024-09-16T00:00:00",
        "primarySource": true,
        "site": {
          "coding": [
            {
              "system": "http://terminology.hl7.org/CodeSystem/v2-0493",
              "code": "RA",
              "display": "Right arm"
            }
          ]
        },
        "route": {
          "coding": [
            {
              "system": "http://snomed.info/sct",
              "code": "78421000",
              "display": "Intramuscular: IM"
            }
          ]
        },
        "meta": {
          "profile": [
            "http://fhir.infoway-inforoute.ca/io/psca/StructureDefinition/Immunization-ps-ca"
          ]
        }
      }
    }
  ]
}