{
  "resourceType": "Bundle",
  "type": "document",
  "entry": [
    {
      "fullUrl": "urn:uuid:1a58a6f3-6b19-4521-be04-ecc8bac7424d",
      "resource": {
        "resourceType": "Composition",
        "id": "1a58a6f3-6b19-4521-be04-ecc8bac7424d",
        "status": "final",
        "type": {
          "coding": [
            {
              "system": "http://loinc.org",
              "code": "60591-5",
              "display": "Patient Summary"
            }
          ]
        },
        "subject": {
          "reference": "urn:uuid:a74a58f8-af74-4ce7-bafb-c94f70ed806f"
        },
        "date": "2025-06-28T20:38:06.388509+00:00",
        "author": [
          {
            "reference": "urn:uuid:psca-author-org",
            "display": "Wellness Way Hospital"
          }
        ],
        "title": "PS-CA Patient Summary",
        "custodian": {
          "reference": "urn:uuid:psca-author-org",
          "display": "Wellness Way Hospital"
        },
        "section": [
          {
            "title": "Allergies",
            "code": {
              "coding": [
                {
                  "system": "http://loinc.org",
                  "code": "48765-2",
                  "display": "Allergies and adverse reactions"
                }
              ]
            },
            "entry": [
              {
                "reference": "urn:uuid:7f69f9f5-35a0-438f-9be5-c1b27506d1dd"
              }
            ]
          },
          {
            "title": "Problems",
            "code": {
              "coding": [
                {
                  "system": "http://loinc.org",
                  "code": "11450-4",
                  "display": "Problem List"
                }
              ]
            },
            "entry": [
              {
                "reference": "urn:uuid:c9272bcd-1e28-463b-86a5-92a26689383b"
              },
              {
                "reference": "urn:uuid:455313a2-8ed2-4c1f-a9d4-d1e78f620074"
              },
              {
                "reference": "urn:uuid:ce19b7ee-01b4-40fb-99d0-8e170cf8e331"
              }
            ]
          },
          {
            "title": "Medications",
            "code": {
              "coding": [
                {
                  "system": "http://loinc.org",
                  "code": "10160-0",
                  "display": "History of Medication Use"
                }
              ]
            },
            "entry": [
              {
                "reference": "urn:uuid:282701ae-7c1d-4d9d-b4f5-954e4d87af51"
              }
            ]
          },
          {
            "title": "Immunizations",
            "code": {
              "coding": [
                {
                  "system": "http://loinc.org",
                  "code": "11369-6",
                  "display": "History of immunizations"
                }
              ]
            },
            "entry": [
              {
                "reference": "urn:uuid:3932460d-6b55-4f55-9308-1e7c10ca1bc7"
              },
              {
                "reference": "urn:uuid:dca431f9-b971-45ee-89ac-08c987fb05ee"
              },
              {
                "reference": "urn:uuid:2e1b019c-e880-4159-a40f-9fd59b1bcee3"
              },
              {
                "reference": "urn:uuid:61a28378-fa49-4425-8245-80bdb3e2eef1"
              },
              {
                "reference": "urn:uuid:92fe153b-cefc-4d06-bfb2-f5178e457ae3"
              },
              {
                "reference": "urn:uuid:255508e9-4277-48c3-b003-7e6f3793ae1d"
              },
              {
                "reference": "urn:uuid:2c06e1d1-5433-43b4-a64a-c13dedd988e5"
              }
            ]
          }
        ]
      }
    },
    {
      "fullUrl": "urn:uuid:a74a58f8-af74-4ce7-bafb-c94f70ed806f",
      "resource": {
        "resourceType": "Patient",
        "id": "a74a58f8-af74-4ce7-bafb-c94f70ed806f",
        "identifier": [
          {
            "system": "http://example.org/healthcardnumber",
            "value": "999 873 847"
          }
        ],
        "name": [
          {
            "family": "Dog",
            "given": [
              "Snoopy"
            ]
          }
        ],
        "telecom": [
          {
            "system": "phone",
            "value": "+1 (115) 305-1522",
            "use": "home"
          },
          {
            "system": "email",
            "value": "Snoopy.Dog@outlook.com",
            "use": "home"
          }
        ],
        "gender": "male",
        "birthDate": "2014-06-12",
        "address": [
          {
            "line": [
              "957 Ramos Forest Suite 214"
            ],
            "city": "Matthewview",
            "state": "Alberta",
            "postalCode": "M6T 3B2",
            "country": "Canada"
          }
        ],
        "photo": [
          {
            "contentType": "image/jpeg",
            "data": ""
          }
        ]
      }
    },
    {
      "fullUrl": "urn:uuid:psca-author-org",
      "resource": {
        "resourceType": "Organization",
        "id": "psca-author-org",
        "name": "Wellness Way Hospital"
      }
    },
    {
      "fullUrl": "urn:uuid:7f69f9f5-35a0-438f-9be5-c1b27506d1dd",
      "resource": {
        "resourceType": "AllergyIntolerance",
        "id": "7f69f9f5-35a0-438f-9be5-c1b27506d1dd",
        "clinicalStatus": {
          "coding": [
            {
              "system": "http://terminology.hl7.org/CodeSystem/allergyintolerance-clinical",
              "code": "active"
            }
          ]
        },
        "verificationStatus": {
          "coding": [
            {
              "system": "http://terminology.hl7.org/CodeSystem/allergyintolerance-verification",
              "code": "confirmed"
            }
          ]
        },
        "criticality": "high",
        "code": {
          "coding": [
            {
              "system": "http://snomed.info/sct",
              "code": "233678006",
              "display": "Egg protein"
            }
          ]
        },
        "patient": {
          "reference": "urn:uuid:a74a58f8-af74-4ce7-bafb-c94f70ed806f"
        },
        "reaction": [
          {
            "manifestation": [
              {
                "coding": [
                  {
                    "system": "http://snomed.info/sct",
                    "code": "271759003",
                    "display": "Wheezing"
                  }
                ]
              }
            ],
            "severity": "moderate"
          }
        ]
      }
    },
    {
      "fullUrl": "urn:uuid:c9272bcd-1e28-463b-86a5-92a26689383b",
      "resource": {
        "resourceType": "Condition",
        "id": "c9272bcd-1e28-463b-86a5-92a26689383b",
        "code": {
          "coding": [
            {
              "system": "http://snomed.info/sct",
              "code": "2023001",
              "display": "Malignant neoplasm of prostate (disorder)"
            }
          ]
        },
        "subject": {
          "reference": "urn:uuid:a74a58f8-af74-4ce7-bafb-c94f70ed806f"
        }
      }
    },
    {
      "fullUrl": "urn:uuid:455313a2-8ed2-4c1f-a9d4-d1e78f620074",
      "resource": {
        "resourceType": "Condition",
        "id": "455313a2-8ed2-4c1f-a9d4-d1e78f620074",
        "code": {
          "coding": [
            {
              "system": "http://snomed.info/sct",
              "code": "239873007",
              "display": "Gastroesophageal reflux disease (disorder)"
            }
          ]
        },
        "subject": {
          "reference": "urn:uuid:a74a58f8-af74-4ce7-bafb-c94f70ed806f"
        }
      }
    },
    {
      "fullUrl": "urn:uuid:ce19b7ee-01b4-40fb-99d0-8e170cf8e331",
      "resource": {
        "resourceType": "Condition",
        "id": "ce19b7ee-01b4-40fb-99d0-8e170cf8e331",
        "code": {
          "coding": [
            {
              "system": "http://snomed.info/sct",
              "code": "44054006",
              "display": "Diabetes mellitus (disorder)"
            }
          ]
        },
        "subject": {
          "reference": "urn:uuid:a74a58f8-af74-4ce7-bafb-c94f70ed806f"
        }
      }
    },
    {
      "fullUrl": "urn:uuid:282701ae-7c1d-4d9d-b4f5-954e4d87af51",
      "resource": {
        "resourceType": "MedicationStatement",
        "id": "282701ae-7c1d-4d9d-b4f5-954e4d87af51",
        "status": "active",
        "medicationCodeableConcept": {
          "coding": [
            {
              "system": "http://terminology.hl7.org/CodeSystem/hc-CCDD",
              "code": "2297795",
              "display": "APO-GLICLAZIDE MR (gliclazide 30 mg prolonged-release oral tablet) APOTEX INC"
            }
          ]
        },
        "subject": {
          "reference": "urn:uuid:a74a58f8-af74-4ce7-bafb-c94f70ed806f"
        }
      }
    },
    {
      "fullUrl": "urn:uuid:3932460d-6b55-4f55-9308-1e7c10ca1bc7",
      "resource": {
        "resourceType": "Immunization",
        "id": "3932460d-6b55-4f55-9308-1e7c10ca1bc7",
        "status": "completed",
        "vaccineCode": {
          "coding": [
            {
              "system": "http://snomed.info/sct",
              "code": "28721000087103",
              "display": "[DTaP] TRIPACEL"
            }
          ]
        },
        "patient": {
          "reference": "urn:uuid:a74a58f8-af74-4ce7-bafb-c94f70ed806f"
        },
        "occurrenceDateTime": "2024-08-13T00:00:00",
        "primarySource": true,
        "site": {
          "coding": [
            {
              "system": "http://terminology.hl7.org/CodeSystem/v2-0493",
              "code": "RA",
              "display": "Right arm"
            }
          ]
        },
        "route": {
          "coding": [
            {
              "system": "http://snomed.info/sct",
              "code": "78421000",
              "display": "Intramuscular: IM"
            }
          ]
        }
      }
    },
    {
      "fullUrl": "urn:uuid:dca431f9-b971-45ee-89ac-08c987fb05ee",
      "resource": {
        "resourceType": "Immunization",
        "id": "dca431f9-b971-45ee-89ac-08c987fb05ee",
        "status": "completed",
        "vaccineCode": {
          "coding": [
            {
              "system": "http://snomed.info/sct",
              "code": "28581000087106",
              "display": "[COVID-19] COMIRNATY (original strain) 30 mcg/0.3 mL"
            }
          ]
        },
        "patient": {
          "reference": "urn:uuid:a74a58f8-af74-4ce7-bafb-c94f70ed806f"
        },
        "occurrenceDateTime": "2023-01-11T00:00:00",
        "primarySource": true,
        "site": {
          "coding": [
            {
              "system": "http://terminology.hl7.org/CodeSystem/v2-0493",
              "code": "RA",
              "display": "Right arm"
            }
          ]
        },
        "route": {
          "coding": [
            {
              "system": "http://snomed.info/sct",
              "code": "78421000",
              "display": "Intramuscular: IM"
            }
          ]
        }
      }
    },
    {
      "fullUrl": "urn:uuid:2e1b019c-e880-4159-a40f-9fd59b1bcee3",
      "resource": {
        "resourceType": "Immunization",
        "id": "2e1b019c-e880-4159-a40f-9fd59b1bcee3",
        "status": "completed",
        "vaccineCode": {
          "coding": [
            {
              "system": "http://snomed.info/sct",
              "code": "37651000087101",
              "display": "[COVID-19] SPIKEVAX Bivalent (Original / Omicron BA.4/BA.5) 0.10 mg/mL"
            }
          ]
        },
        "patient": {
          "reference": "urn:uuid:a74a58f8-af74-4ce7-bafb-c94f70ed806f"
        },
        "occurrenceDateTime": "2023-06-05T00:00:00",
        "primarySource": true,
        "site": {
          "coding": [
            {
              "system": "http://terminology.hl7.org/CodeSystem/v2-0493",
              "code": "RA",
              "display": "Right arm"
            }
          ]
        },
        "route": {
          "coding": [
            {
              "system": "http://snomed.info/sct",
              "code": "78421000",
              "display": "Intramuscular: IM"
            }
          ]
        }
      }
    },
    {
      "fullUrl": "urn:uuid:61a28378-fa49-4425-8245-80bdb3e2eef1",
      "resource": {
        "resourceType": "Immunization",
        "id": "61a28378-fa49-4425-8245-80bdb3e2eef1",
        "status": "completed",
        "vaccineCode": {
          "coding": [
            {
              "system": "http://snomed.info/sct",
              "code": "51471000087104",
              "display": "[COVID-19] COMIRNATY Omicron XBB.1.5 30 mcg/0.3 mL"
            }
          ]
        },
        "patient": {
          "reference": "urn:uuid:a74a58f8-af74-4ce7-bafb-c94f70ed806f"
        },
        "occurrenceDateTime": "2021-02-04T00:00:00",
        "primarySource": true,
        "site": {
          "coding": [
            {
              "system": "http://terminology.hl7.org/CodeSystem/v2-0493",
              "code": "LA",
              "display": "Left arm"
            }
          ]
        },
        "route": {
          "coding": [
            {
              "system": "http://snomed.info/sct",
              "code": "78421000",
              "display": "Intramuscular: IM"
            }
          ]
        }
      }
    },
    {
      "fullUrl": "urn:uuid:92fe153b-cefc-4d06-bfb2-f5178e457ae3",
      "resource": {
        "resourceType": "Immunization",
        "id": "92fe153b-cefc-4d06-bfb2-f5178e457ae3",
        "status": "completed",
        "vaccineCode": {
          "coding": [
            {
              "system": "http://snomed.info/sct",
              "code": "24381000087107",
              "display": "[Inf] AFLURIA TETRA"
            }
          ]
        },
        "patient": {
          "reference": "urn:uuid:a74a58f8-af74-4ce7-bafb-c94f70ed806f"
        },
        "occurrenceDateTime": "2021-12-05T00:00:00",
        "primarySource": true,
        "site": {
          "coding": [
            {
              "system": "http://terminology.hl7.org/CodeSystem/v2-0493",
              "code": "LA",
              "display": "Left arm"
            }
          ]
        },
        "route": {
          "coding": [
            {
              "system": "http://snomed.info/sct",
              "code": "78421000",
              "display": "Intramuscular: IM"
            }
          ]
        }
      }
    },
    {
      "fullUrl": "urn:uuid:255508e9-4277-48c3-b003-7e6f3793ae1d",
      "resource": {
        "resourceType": "Immunization",
        "id": "255508e9-4277-48c3-b003-7e6f3793ae1d",
        "status": "completed",
        "vaccineCode": {
          "coding": [
            {
              "system": "http://snomed.info/sct",
              "code": "31541000087105",
              "display": "[Var] VARILRIX"
            }
          ]
        },
        "patient": {
          "reference": "urn:uuid:a74a58f8-af74-4ce7-bafb-c94f70ed806f"
        },
        "occurrenceDateTime": "2024-11-18T00:00:00",
        "primarySource": true,
        "site": {
          "coding": [
            {
              "system": "http://terminology.hl7.org/CodeSystem/v2-0493",
              "code": "LA",
              "display": "Left arm"
            }
          ]
        },
        "route": {
          "coding": [
            {
              "system": "http://snomed.info/sct",
              "code": "78421000",
              "display": "Intramuscular: IM"
            }
          ]
        }
      }
    },
    {
      "fullUrl": "urn:uuid:2c06e1d1-5433-43b4-a64a-c13dedd988e5",
      "resource": {
        "resourceType": "Immunization",
        "id": "2c06e1d1-5433-43b4-a64a-c13dedd988e5",
        "status": "completed",
        "vaccineCode": {
          "coding": [
            {
              "system": "http://snomed.info/sct",
              "code": "28581000087106",
              "display": "[COVID-19] COMIRNATY (original strain) 30 mcg/0.3 mL"
            }
          ]
        },
        "patient": {
          "reference": "urn:uuid:a74a58f8-af74-4ce7-bafb-c94f70ed806f"
        },
        "occurrenceDateTime": "2020-10-05T00:00:00",
        "primarySource": true,
        "site": {
          "coding": [
            {
              "system": "http://terminology.hl7.org/CodeSystem/v2-0493",
              "code": "RA",
              "display": "Right arm"
            }
          ]
        },
        "route": {
          "coding": [
            {
              "system": "http://snomed.info/sct",
              "code": "78421000",
              "display": "Intramuscular: IM"
            }
          ]
        }
      }
    }
  ]
}