{
  "resourceType": "Bundle",
  "type": "document",
  "entry": [
    {
      "fullUrl": "urn:uuid:c9abb77c-994f-4293-ac30-4ed9e5873c47",
      "resource": {
        "resourceType": "Composition",
        "id": "c9abb77c-994f-4293-ac30-4ed9e5873c47",
        "status": "final",
        "type": {
          "coding": [
            {
              "system": "http://loinc.org",
              "code": "60591-5",
              "display": "Patient summary Document"
            }
          ]
        },
        "subject": {
          "reference": "urn:uuid:e2f0e495-75b8-447c-adec-b585cf4eb44e"
        },
        "date": "2025-06-30T16:25:29.738237+00:00",
        "author": [
          {
            "reference": "urn:uuid:psca-author-org",
            "display": "Wellness Way Hospital"
          }
        ],
        "title": "PS-CA Patient Summary",
        "custodian": {
          "reference": "urn:uuid:psca-author-org",
          "display": "Wellness Way Hospital"
        },
        "section": [
          {
            "title": "Allergies",
            "code": {
              "coding": [
                {
                  "system": "http://loinc.org",
                  "code": "48765-2",
                  "display": "Allergies and adverse reactions Document"
                }
              ]
            },
            "entry": [
              {
                "reference": "urn:uuid:86023551-5ae4-4156-964c-5f0400af0170"
              },
              {
                "reference": "urn:uuid:b9fc41af-bf36-40c4-9c03-b512243923bd"
              }
            ]
          },
          {
            "title": "Medications",
            "code": {
              "coding": [
                {
                  "system": "http://loinc.org",
                  "code": "10160-0",
                  "display": "History of Medication use Narrative"
                }
              ]
            },
            "entry": [
              {
                "reference": "urn:uuid:41ed8de3-aa29-4972-be3a-434a5577cf89"
              },
              {
                "reference": "urn:uuid:359f2b1f-f97b-46e4-a36a-6b5f21072a32"
              }
            ]
          },
          {
            "title": "Immunizations",
            "code": {
              "coding": [
                {
                  "system": "http://loinc.org",
                  "code": "11369-6",
                  "display": "History of Immunization Narrative"
                }
              ]
            },
            "entry": [
              {
                "reference": "urn:uuid:b987cfd3-729d-44b2-998e-55614fe4d6ce"
              },
              {
                "reference": "urn:uuid:7a75ddd8-3f00-4e91-87c0-621725533695"
              },
              {
                "reference": "urn:uuid:860a30b6-8564-488c-b95a-67f3a2f4b8bf"
              },
              {
                "reference": "urn:uuid:0a188461-abb3-4338-8a4d-902e63711334"
              },
              {
                "reference": "urn:uuid:818b40a7-b4c3-44b6-86f6-ee370f6383c1"
              },
              {
                "reference": "urn:uuid:0f9016e6-9551-40f2-bde6-91aab0bb1d24"
              },
              {
                "reference": "urn:uuid:c7d2b339-4857-4264-9cd9-9a4e0371e0d3"
              },
              {
                "reference": "urn:uuid:0b740407-94c2-421c-b0c1-bda96feed03c"
              },
              {
                "reference": "urn:uuid:d28fa8e9-a5e7-4b9f-8e92-37e543baf12d"
              }
            ]
          }
        ]
      }
    },
    {
      "fullUrl": "urn:uuid:e2f0e495-75b8-447c-adec-b585cf4eb44e",
      "resource": {
        "resourceType": "Patient",
        "id": "e2f0e495-75b8-447c-adec-b585cf4eb44e",
        "identifier": [
          {
            "system": "http://example.org/healthcardnumber",
            "value": "999 884 228"
          }
        ],
        "name": [
          {
            "family": "Duck",
            "given": [
              "Daffy"
            ]
          }
        ],
        "telecom": [
          {
            "system": "phone",
            "value": "(416) 850-5423 x573",
            "use": "home"
          },
          {
            "system": "email",
            "value": "Daffy.Duck@outlook.com",
            "use": "home"
          }
        ],
        "gender": "unknown",
        "birthDate": "1960-06-17",
        "address": [
          {
            "line": [
              "4330 Raymond Harbors Apt. 458"
            ],
            "city": "Christinaside",
            "state": "British Columbia",
            "postalCode": "H7H 4C8",
            "country": "Canada"
          }
        ],
        "photo": [
          {
            "contentType": "image/jpeg",
            "data": ""
          }
        ]
      }
    },
    {
      "fullUrl": "urn:uuid:psca-author-org",
      "resource": {
        "resourceType": "Organization",
        "id": "psca-author-org",
        "name": "Wellness Way Hospital"
      }
    },
    {
      "fullUrl": "urn:uuid:86023551-5ae4-4156-964c-5f0400af0170",
      "resource": {
        "resourceType": "AllergyIntolerance",
        "id": "86023551-5ae4-4156-964c-5f0400af0170",
        "clinicalStatus": {
          "coding": [
            {
              "system": "http://terminology.hl7.org/CodeSystem/allergyintolerance-clinical",
              "code": "active"
            }
          ]
        },
        "verificationStatus": {
          "coding": [
            {
              "system": "http://terminology.hl7.org/CodeSystem/allergyintolerance-verification",
              "code": "confirmed"
            }
          ]
        },
        "code": {
          "coding": [
            {
              "system": "http://snomed.info/sct",
              "code": "91930004",
              "display": "Latex"
            }
          ]
        },
        "patient": {
          "reference": "urn:uuid:e2f0e495-75b8-447c-adec-b585cf4eb44e"
        },
        "reaction": [
          {
            "manifestation": [
              {
                "coding": [
                  {
                    "system": "http://snomed.info/sct",
                    "code": "247472004",
                    "display": "Hives"
                  }
                ]
              }
            ],
            "severity": "severe"
          }
        ]
      }
    },
    {
      "fullUrl": "urn:uuid:b9fc41af-bf36-40c4-9c03-b512243923bd",
      "resource": {
        "resourceType": "AllergyIntolerance",
        "id": "b9fc41af-bf36-40c4-9c03-b512243923bd",
        "clinicalStatus": {
          "coding": [
            {
              "system": "http://terminology.hl7.org/CodeSystem/allergyintolerance-clinical",
              "code": "active"
            }
          ]
        },
        "verificationStatus": {
          "coding": [
            {
              "system": "http://terminology.hl7.org/CodeSystem/allergyintolerance-verification",
              "code": "confirmed"
            }
          ]
        },
        "code": {
          "coding": [
            {
              "system": "http://snomed.info/sct",
              "code": "91932001",
              "display": "Aspirin"
            }
          ]
        },
        "patient": {
          "reference": "urn:uuid:e2f0e495-75b8-447c-adec-b585cf4eb44e"
        },
        "reaction": [
          {
            "manifestation": [
              {
                "coding": [
                  {
                    "system": "http://snomed.info/sct",
                    "code": "271757001",
                    "display": "Anaphylaxis"
                  }
                ]
              }
            ],
            "severity": "mild"
          }
        ]
      }
    },
    {
      "fullUrl": "urn:uuid:41ed8de3-aa29-4972-be3a-434a5577cf89",
      "resource": {
        "resourceType": "MedicationStatement",
        "id": "41ed8de3-aa29-4972-be3a-434a5577cf89",
        "status": "active",
        "medicationCodeableConcept": {
          "coding": [
            {
              "system": "http://terminology.hl7.org/CodeSystem/hc-CCDD",
              "code": "9001234",
              "display": "\tduloxetine (duloxetine hydrochloride) 30 mg gastro-resistant capsule"
            }
          ]
        },
        "subject": {
          "reference": "urn:uuid:e2f0e495-75b8-447c-adec-b585cf4eb44e"
        }
      }
    },
    {
      "fullUrl": "urn:uuid:359f2b1f-f97b-46e4-a36a-6b5f21072a32",
      "resource": {
        "resourceType": "MedicationStatement",
        "id": "359f2b1f-f97b-46e4-a36a-6b5f21072a32",
        "status": "active",
        "medicationCodeableConcept": {
          "coding": [
            {
              "system": "http://terminology.hl7.org/CodeSystem/hc-CCDD",
              "code": "9000834",
              "display": "citalopram (citalopram hydrobromide) 20 mg oral tablet"
            }
          ]
        },
        "subject": {
          "reference": "urn:uuid:e2f0e495-75b8-447c-adec-b585cf4eb44e"
        }
      }
    },
    {
      "fullUrl": "urn:uuid:b987cfd3-729d-44b2-998e-55614fe4d6ce",
      "resource": {
        "resourceType": "Immunization",
        "id": "b987cfd3-729d-44b2-998e-55614fe4d6ce",
        "status": "completed",
        "vaccineCode": {
          "coding": [
            {
              "system": "http://snomed.info/sct",
              "code": "7361000087100",
              "display": "[IPV] IMOVAX POLIO"
            }
          ]
        },
        "patient": {
          "reference": "urn:uuid:e2f0e495-75b8-447c-adec-b585cf4eb44e"
        },
        "occurrenceDateTime": "2024-10-02T00:00:00",
        "primarySource": true,
        "site": {
          "coding": [
            {
              "system": "http://terminology.hl7.org/CodeSystem/v2-0493",
              "code": "RA",
              "display": "Right arm"
            }
          ]
        },
        "route": {
          "coding": [
            {
              "system": "http://snomed.info/sct",
              "code": "78421000",
              "display": "Intramuscular: IM"
            }
          ]
        }
      }
    },
    {
      "fullUrl": "urn:uuid:7a75ddd8-3f00-4e91-87c0-621725533695",
      "resource": {
        "resourceType": "Immunization",
        "id": "7a75ddd8-3f00-4e91-87c0-621725533695",
        "status": "completed",
        "vaccineCode": {
          "coding": [
            {
              "system": "http://snomed.info/sct",
              "code": "28581000087106",
              "display": "[COVID-19] COMIRNATY (original strain) 30 mcg/0.3 mL"
            }
          ]
        },
        "patient": {
          "reference": "urn:uuid:e2f0e495-75b8-447c-adec-b585cf4eb44e"
        },
        "occurrenceDateTime": "2022-12-13T00:00:00",
        "primarySource": true,
        "site": {
          "coding": [
            {
              "system": "http://terminology.hl7.org/CodeSystem/v2-0493",
              "code": "LA",
              "display": "Left arm"
            }
          ]
        },
        "route": {
          "coding": [
            {
              "system": "http://snomed.info/sct",
              "code": "78421000",
              "display": "Intramuscular: IM"
            }
          ]
        }
      }
    },
    {
      "fullUrl": "urn:uuid:860a30b6-8564-488c-b95a-67f3a2f4b8bf",
      "resource": {
        "resourceType": "Immunization",
        "id": "860a30b6-8564-488c-b95a-67f3a2f4b8bf",
        "status": "completed",
        "vaccineCode": {
          "coding": [
            {
              "system": "http://snomed.info/sct",
              "code": "37651000087101",
              "display": "[COVID-19] SPIKEVAX Bivalent (Original / Omicron BA.4/BA.5) 0.10 mg/mL"
            }
          ]
        },
        "patient": {
          "reference": "urn:uuid:e2f0e495-75b8-447c-adec-b585cf4eb44e"
        },
        "occurrenceDateTime": "2024-09-14T00:00:00",
        "primarySource": true,
        "site": {
          "coding": [
            {
              "system": "http://terminology.hl7.org/CodeSystem/v2-0493",
              "code": "RA",
              "display": "Right arm"
            }
          ]
        },
        "route": {
          "coding": [
            {
              "system": "http://snomed.info/sct",
              "code": "78421000",
              "display": "Intramuscular: IM"
            }
          ]
        }
      }
    },
    {
      "fullUrl": "urn:uuid:0a188461-abb3-4338-8a4d-902e63711334",
      "resource": {
        "resourceType": "Immunization",
        "id": "0a188461-abb3-4338-8a4d-902e63711334",
        "status": "completed",
        "vaccineCode": {
          "coding": [
            {
              "system": "http://snomed.info/sct",
              "code": "28581000087106",
              "display": "[COVID-19] COMIRNATY (original strain) 30 mcg/0.3 mL"
            }
          ]
        },
        "patient": {
          "reference": "urn:uuid:e2f0e495-75b8-447c-adec-b585cf4eb44e"
        },
        "occurrenceDateTime": "2022-03-18T00:00:00",
        "primarySource": true,
        "site": {
          "coding": [
            {
              "system": "http://terminology.hl7.org/CodeSystem/v2-0493",
              "code": "RA",
              "display": "Right arm"
            }
          ]
        },
        "route": {
          "coding": [
            {
              "system": "http://snomed.info/sct",
              "code": "78421000",
              "display": "Intramuscular: IM"
            }
          ]
        }
      }
    },
    {
      "fullUrl": "urn:uuid:818b40a7-b4c3-44b6-86f6-ee370f6383c1",
      "resource": {
        "resourceType": "Immunization",
        "id": "818b40a7-b4c3-44b6-86f6-ee370f6383c1",
        "status": "completed",
        "vaccineCode": {
          "coding": [
            {
              "system": "http://snomed.info/sct",
              "code": "51471000087104",
              "display": "[COVID-19] COMIRNATY Omicron XBB.1.5 30 mcg/0.3 mL"
            }
          ]
        },
        "patient": {
          "reference": "urn:uuid:e2f0e495-75b8-447c-adec-b585cf4eb44e"
        },
        "occurrenceDateTime": "2024-08-02T00:00:00",
        "primarySource": true,
        "site": {
          "coding": [
            {
              "system": "http://terminology.hl7.org/CodeSystem/v2-0493",
              "code": "RA",
              "display": "Right arm"
            }
          ]
        },
        "route": {
          "coding": [
            {
              "system": "http://snomed.info/sct",
              "code": "78421000",
              "display": "Intramuscular: IM"
            }
          ]
        }
      }
    },
    {
      "fullUrl": "urn:uuid:0f9016e6-9551-40f2-bde6-91aab0bb1d24",
      "resource": {
        "resourceType": "Immunization",
        "id": "0f9016e6-9551-40f2-bde6-91aab0bb1d24",
        "status": "completed",
        "vaccineCode": {
          "coding": [
            {
              "system": "http://snomed.info/sct",
              "code": "28721000087103",
              "display": "[DTaP] TRIPACEL"
            }
          ]
        },
        "patient": {
          "reference": "urn:uuid:e2f0e495-75b8-447c-adec-b585cf4eb44e"
        },
        "occurrenceDateTime": "2024-11-05T00:00:00",
        "primarySource": true,
        "site": {
          "coding": [
            {
              "system": "http://terminology.hl7.org/CodeSystem/v2-0493",
              "code": "RA",
              "display": "Right arm"
            }
          ]
        },
        "route": {
          "coding": [
            {
              "system": "http://snomed.info/sct",
              "code": "78421000",
              "display": "Intramuscular: IM"
            }
          ]
        }
      }
    },
    {
      "fullUrl": "urn:uuid:c7d2b339-4857-4264-9cd9-9a4e0371e0d3",
      "resource": {
        "resourceType": "Immunization",
        "id": "c7d2b339-4857-4264-9cd9-9a4e0371e0d3",
        "status": "completed",
        "vaccineCode": {
          "coding": [
            {
              "system": "http://snomed.info/sct",
              "code": "28581000087106",
              "display": "[COVID-19] COMIRNATY (original strain) 30 mcg/0.3 mL"
            }
          ]
        },
        "patient": {
          "reference": "urn:uuid:e2f0e495-75b8-447c-adec-b585cf4eb44e"
        },
        "occurrenceDateTime": "2020-08-30T00:00:00",
        "primarySource": true,
        "site": {
          "coding": [
            {
              "system": "http://terminology.hl7.org/CodeSystem/v2-0493",
              "code": "RA",
              "display": "Right arm"
            }
          ]
        },
        "route": {
          "coding": [
            {
              "system": "http://snomed.info/sct",
              "code": "78421000",
              "display": "Intramuscular: IM"
            }
          ]
        }
      }
    },
    {
      "fullUrl": "urn:uuid:0b740407-94c2-421c-b0c1-bda96feed03c",
      "resource": {
        "resourceType": "Immunization",
        "id": "0b740407-94c2-421c-b0c1-bda96feed03c",
        "status": "completed",
        "vaccineCode": {
          "coding": [
            {
              "system": "http://snomed.info/sct",
              "code": "31541000087105",
              "display": "[Var] VARILRIX"
            }
          ]
        },
        "patient": {
          "reference": "urn:uuid:e2f0e495-75b8-447c-adec-b585cf4eb44e"
        },
        "occurrenceDateTime": "2023-10-08T00:00:00",
        "primarySource": true,
        "site": {
          "coding": [
            {
              "system": "http://terminology.hl7.org/CodeSystem/v2-0493",
              "code": "RA",
              "display": "Right arm"
            }
          ]
        },
        "route": {
          "coding": [
            {
              "system": "http://snomed.info/sct",
              "code": "78421000",
              "display": "Intramuscular: IM"
            }
          ]
        }
      }
    },
    {
      "fullUrl": "urn:uuid:d28fa8e9-a5e7-4b9f-8e92-37e543baf12d",
      "resource": {
        "resourceType": "Immunization",
        "id": "d28fa8e9-a5e7-4b9f-8e92-37e543baf12d",
        "status": "completed",
        "vaccineCode": {
          "coding": [
            {
              "system": "http://snomed.info/sct",
              "code": "51471000087104",
              "display": "[COVID-19] COMIRNATY Omicron XBB.1.5 30 mcg/0.3 mL"
            }
          ]
        },
        "patient": {
          "reference": "urn:uuid:e2f0e495-75b8-447c-adec-b585cf4eb44e"
        },
        "occurrenceDateTime": "2021-08-09T00:00:00",
        "primarySource": true,
        "site": {
          "coding": [
            {
              "system": "http://terminology.hl7.org/CodeSystem/v2-0493",
              "code": "LA",
              "display": "Left arm"
            }
          ]
        },
        "route": {
          "coding": [
            {
              "system": "http://snomed.info/sct",
              "code": "78421000",
              "display": "Intramuscular: IM"
            }
          ]
        }
      }
    }
  ]
}