{
  "resourceType": "Bundle",
  "type": "document",
  "entry": [
    {
      "fullUrl": "urn:uuid:bb008939-1f28-4b75-8c4a-fe0ddf662251",
      "resource": {
        "resourceType": "Composition",
        "id": "bb008939-1f28-4b75-8c4a-fe0ddf662251",
        "status": "final",
        "type": {
          "coding": [
            {
              "system": "http://loinc.org",
              "code": "60591-5",
              "display": "Patient Summary"
            }
          ]
        },
        "subject": {
          "reference": "urn:uuid:527c910e-64aa-4c44-9306-2554735f4d9c"
        },
        "date": "2025-06-23T23:51:22.856921+00:00",
        "title": "PS-CA Patient Summary",
        "author": [
          {
            "reference": "urn:uuid:psca-author-org",
            "display": "Wellness Way Hospital"
          }
        ],
        "custodian": {
          "reference": "urn:uuid:psca-author-org",
          "display": "Wellness Way Hospital"
        },
        "section": [
          {
            "title": "Allergies",
            "code": {
              "coding": [
                {
                  "system": "http://loinc.org",
                  "code": "48765-2",
                  "display": "Allergies and adverse reactions"
                }
              ]
            },
            "entry": [
              {
                "reference": "urn:uuid:d8d58f59-27ed-44b0-ad1d-c050a45622f9"
              },
              {
                "reference": "urn:uuid:32d9b24e-d6d2-48c3-a853-10fe95810a45"
              },
              {
                "reference": "urn:uuid:af5e0fa4-bd79-437d-bbe8-0897e478f58c"
              }
            ]
          },
          {
            "title": "Problems",
            "code": {
              "coding": [
                {
                  "system": "http://loinc.org",
                  "code": "11450-4",
                  "display": "Problem List"
                }
              ]
            },
            "entry": [
              {
                "reference": "urn:uuid:842b082d-c625-4b72-a1a7-ebb8d50870c3"
              }
            ]
          },
          {
            "title": "Medications",
            "code": {
              "coding": [
                {
                  "system": "http://loinc.org",
                  "code": "10160-0",
                  "display": "History of Medication Use"
                }
              ]
            },
            "entry": [
              {
                "reference": "urn:uuid:394cbd76-7d71-41a2-8a6a-a15a155fca2f"
              }
            ]
          },
          {
            "title": "Immunizations",
            "code": {
              "coding": [
                {
                  "system": "http://loinc.org",
                  "code": "11369-6",
                  "display": "History of immunizations"
                }
              ]
            },
            "entry": [
              {
                "reference": "urn:uuid:1a5a5dc0-4dee-41e0-87bd-7ce5bb79644f"
              },
              {
                "reference": "urn:uuid:c0eb0969-4184-4e3b-8a18-c2ad15fa22af"
              },
              {
                "reference": "urn:uuid:9f6bcf0e-4462-4d9b-b1d1-d93cf53b36ff"
              },
              {
                "reference": "urn:uuid:848c51e9-6787-4714-9c86-22fd5f52a5f7"
              },
              {
                "reference": "urn:uuid:c64b8461-f637-49f4-9498-642efca0e9e4"
              },
              {
                "reference": "urn:uuid:ef0d0db8-c915-466e-bc7a-30e67116ce27"
              }
            ]
          }
        ]
      }
    },
    {
      "fullUrl": "urn:uuid:527c910e-64aa-4c44-9306-2554735f4d9c",
      "resource": {
        "resourceType": "Patient",
        "id": "527c910e-64aa-4c44-9306-2554735f4d9c",
        "identifier": [
          {
            "system": "http://example.org/healthcardnumber",
            "value": "999 471 999"
          }
        ],
        "name": [
          {
            "family": "Doo",
            "given": [
              "Scooby"
            ]
          }
        ],
        "gender": "other",
        "birthDate": "1990-06-18",
        "telecom": [
          {
            "system": "phone",
            "value": "331 243 2921",
            "use": "home"
          },
          {
            "system": "email",
            "value": "Scooby.Doo@outlook.com",
            "use": "home"
          }
        ],
        "address": [
          {
            "line": [
              "9911 William Curve"
            ],
            "city": "New Anthonyport",
            "state": "Saskatchewan",
            "postalCode": "T4N 7J4",
            "country": "Canada"
          }
        ],
        "photo": [
          {
            "contentType": "image/jpeg",
            "data": ""
          }
        ]
      }
    },
    {
      "fullUrl": "urn:uuid:psca-author-org",
      "resource": {
        "resourceType": "Organization",
        "id": "psca-author-org",
        "name": "Wellness Way Hospital"
      }
    },
    {
      "fullUrl": "urn:uuid:842b082d-c625-4b72-a1a7-ebb8d50870c3",
      "resource": {
        "resourceType": "Condition",
        "id": "842b082d-c625-4b72-a1a7-ebb8d50870c3",
        "subject": {
          "reference": "urn:uuid:527c910e-64aa-4c44-9306-2554735f4d9c"
        },
        "code": {
          "coding": [
            {
              "system": "http://snomed.info/sct",
              "code": "38341003",
              "display": "Hypertensive disorder, systemic arterial (disorder)"
            }
          ]
        }
      }
    },
    {
      "fullUrl": "urn:uuid:394cbd76-7d71-41a2-8a6a-a15a155fca2f",
      "resource": {
        "resourceType": "MedicationStatement",
        "id": "394cbd76-7d71-41a2-8a6a-a15a155fca2f",
        "subject": {
          "reference": "urn:uuid:527c910e-64aa-4c44-9306-2554735f4d9c"
        },
        "medicationCodeableConcept": {
          "coding": [
            {
              "system": "http://terminology.hl7.org/CodeSystem/hc-CCDD",
              "code": "9000723",
              "display": "\tramipril 5 mg oral capsule"
            }
          ]
        },
        "status": "active"
      }
    },
    {
      "fullUrl": "urn:uuid:d8d58f59-27ed-44b0-ad1d-c050a45622f9",
      "resource": {
        "resourceType": "AllergyIntolerance",
        "id": "d8d58f59-27ed-44b0-ad1d-c050a45622f9",
        "clinicalStatus": {
          "coding": [
            {
              "system": "http://terminology.hl7.org/CodeSystem/allergyintolerance-clinical",
              "code": "active"
            }
          ]
        },
        "verificationStatus": {
          "coding": [
            {
              "system": "http://terminology.hl7.org/CodeSystem/allergyintolerance-verification",
              "code": "confirmed"
            }
          ]
        },
        "criticality": "low",
        "code": {
          "coding": [
            {
              "system": "http://snomed.info/sct",
              "code": 227493005,
              "display": "Milk protein"
            }
          ]
        },
        "reaction": [
          {
            "manifestation": [
              {
                "coding": [
                  {
                    "system": "http://snomed.info/sct",
                    "code": 422400008,
                    "display": "Rash"
                  }
                ]
              }
            ],
            "severity": "mild"
          }
        ],
        "patient": {
          "reference": "urn:uuid:527c910e-64aa-4c44-9306-2554735f4d9c"
        }
      }
    },
    {
      "fullUrl": "urn:uuid:32d9b24e-d6d2-48c3-a853-10fe95810a45",
      "resource": {
        "resourceType": "AllergyIntolerance",
        "id": "32d9b24e-d6d2-48c3-a853-10fe95810a45",
        "clinicalStatus": {
          "coding": [
            {
              "system": "http://terminology.hl7.org/CodeSystem/allergyintolerance-clinical",
              "code": "active"
            }
          ]
        },
        "verificationStatus": {
          "coding": [
            {
              "system": "http://terminology.hl7.org/CodeSystem/allergyintolerance-verification",
              "code": "confirmed"
            }
          ]
        },
        "criticality": "high",
        "code": {
          "coding": [
            {
              "system": "http://snomed.info/sct",
              "code": 91937009,
              "display": "Ibuprofen"
            }
          ]
        },
        "reaction": [
          {
            "manifestation": [
              {
                "coding": [
                  {
                    "system": "http://snomed.info/sct",
                    "code": 422400008,
                    "display": "Rash"
                  }
                ]
              }
            ],
            "severity": "mild"
          }
        ],
        "patient": {
          "reference": "urn:uuid:527c910e-64aa-4c44-9306-2554735f4d9c"
        }
      }
    },
    {
      "fullUrl": "urn:uuid:af5e0fa4-bd79-437d-bbe8-0897e478f58c",
      "resource": {
        "resourceType": "AllergyIntolerance",
        "id": "af5e0fa4-bd79-437d-bbe8-0897e478f58c",
        "clinicalStatus": {
          "coding": [
            {
              "system": "http://terminology.hl7.org/CodeSystem/allergyintolerance-clinical",
              "code": "active"
            }
          ]
        },
        "verificationStatus": {
          "coding": [
            {
              "system": "http://terminology.hl7.org/CodeSystem/allergyintolerance-verification",
              "code": "confirmed"
            }
          ]
        },
        "criticality": "unable-to-assess",
        "code": {
          "coding": [
            {
              "system": "http://snomed.info/sct",
              "code": 91932001,
              "display": "Aspirin"
            }
          ]
        },
        "reaction": [
          {
            "manifestation": [
              {
                "coding": [
                  {
                    "system": "http://snomed.info/sct",
                    "code": 271759003,
                    "display": "Wheezing"
                  }
                ]
              }
            ],
            "severity": "severe"
          }
        ],
        "patient": {
          "reference": "urn:uuid:527c910e-64aa-4c44-9306-2554735f4d9c"
        }
      }
    },
    {
      "fullUrl": "urn:uuid:1a5a5dc0-4dee-41e0-87bd-7ce5bb79644f",
      "resource": {
        "resourceType": "Immunization",
        "id": "1a5a5dc0-4dee-41e0-87bd-7ce5bb79644f",
        "status": "completed",
        "vaccineCode": {
          "coding": [
            {
              "system": "http://snomed.info/sct",
              "code": "28581000087106",
              "display": "[COVID-19] COMIRNATY (original strain) 30 mcg/0.3 mL"
            }
          ]
        },
        "patient": {
          "reference": "urn:uuid:527c910e-64aa-4c44-9306-2554735f4d9c"
        },
        "occurrenceDateTime": "2024-12-18",
        "primarySource": true,
        "site": {
          "coding": [
            {
              "system": "http://terminology.hl7.org/CodeSystem/v2-0493",
              "code": "RA",
              "display": "Right arm"
            }
          ]
        },
        "route": {
          "coding": [
            {
              "system": "http://snomed.info/sct",
              "code": 78421000,
              "display": "Intramuscular: IM"
            }
          ]
        }
      }
    },
    {
      "fullUrl": "urn:uuid:c0eb0969-4184-4e3b-8a18-c2ad15fa22af",
      "resource": {
        "resourceType": "Immunization",
        "id": "c0eb0969-4184-4e3b-8a18-c2ad15fa22af",
        "status": "completed",
        "vaccineCode": {
          "coding": [
            {
              "system": "http://snomed.info/sct",
              "code": "31541000087105",
              "display": "[Var] VARILRIX"
            }
          ]
        },
        "patient": {
          "reference": "urn:uuid:527c910e-64aa-4c44-9306-2554735f4d9c"
        },
        "occurrenceDateTime": "2023-10-17",
        "primarySource": true,
        "site": {
          "coding": [
            {
              "system": "http://terminology.hl7.org/CodeSystem/v2-0493",
              "code": "RA",
              "display": "Right arm"
            }
          ]
        },
        "route": {
          "coding": [
            {
              "system": "http://snomed.info/sct",
              "code": 78421000,
              "display": "Intramuscular: IM"
            }
          ]
        }
      }
    },
    {
      "fullUrl": "urn:uuid:9f6bcf0e-4462-4d9b-b1d1-d93cf53b36ff",
      "resource": {
        "resourceType": "Immunization",
        "id": "9f6bcf0e-4462-4d9b-b1d1-d93cf53b36ff",
        "status": "completed",
        "vaccineCode": {
          "coding": [
            {
              "system": "http://snomed.info/sct",
              "code": "7361000087100",
              "display": "[IPV] IMOVAX POLIO"
            }
          ]
        },
        "patient": {
          "reference": "urn:uuid:527c910e-64aa-4c44-9306-2554735f4d9c"
        },
        "occurrenceDateTime": "2024-08-24",
        "primarySource": true,
        "site": {
          "coding": [
            {
              "system": "http://terminology.hl7.org/CodeSystem/v2-0493",
              "code": "RA",
              "display": "Right arm"
            }
          ]
        },
        "route": {
          "coding": [
            {
              "system": "http://snomed.info/sct",
              "code": 78421000,
              "display": "Intramuscular: IM"
            }
          ]
        }
      }
    },
    {
      "fullUrl": "urn:uuid:848c51e9-6787-4714-9c86-22fd5f52a5f7",
      "resource": {
        "resourceType": "Immunization",
        "id": "848c51e9-6787-4714-9c86-22fd5f52a5f7",
        "status": "completed",
        "vaccineCode": {
          "coding": [
            {
              "system": "http://snomed.info/sct",
              "code": "7161000087102",
              "display": "[MMR] M-M-R II"
            }
          ]
        },
        "patient": {
          "reference": "urn:uuid:527c910e-64aa-4c44-9306-2554735f4d9c"
        },
        "occurrenceDateTime": "2023-08-31",
        "primarySource": true,
        "site": {
          "coding": [
            {
              "system": "http://terminology.hl7.org/CodeSystem/v2-0493",
              "code": "LA",
              "display": "Left arm"
            }
          ]
        },
        "route": {
          "coding": [
            {
              "system": "http://snomed.info/sct",
              "code": 78421000,
              "display": "Intramuscular: IM"
            }
          ]
        }
      }
    },
    {
      "fullUrl": "urn:uuid:c64b8461-f637-49f4-9498-642efca0e9e4",
      "resource": {
        "resourceType": "Immunization",
        "id": "c64b8461-f637-49f4-9498-642efca0e9e4",
        "status": "completed",
        "vaccineCode": {
          "coding": [
            {
              "system": "http://snomed.info/sct",
              "code": "51471000087104",
              "display": "[COVID-19] COMIRNATY Omicron XBB.1.5 30 mcg/0.3 mL"
            }
          ]
        },
        "patient": {
          "reference": "urn:uuid:527c910e-64aa-4c44-9306-2554735f4d9c"
        },
        "occurrenceDateTime": "2024-06-08",
        "primarySource": true,
        "site": {
          "coding": [
            {
              "system": "http://terminology.hl7.org/CodeSystem/v2-0493",
              "code": "LA",
              "display": "Left arm"
            }
          ]
        },
        "route": {
          "coding": [
            {
              "system": "http://snomed.info/sct",
              "code": 78421000,
              "display": "Intramuscular: IM"
            }
          ]
        }
      }
    },
    {
      "fullUrl": "urn:uuid:ef0d0db8-c915-466e-bc7a-30e67116ce27",
      "resource": {
        "resourceType": "Immunization",
        "id": "ef0d0db8-c915-466e-bc7a-30e67116ce27",
        "status": "completed",
        "vaccineCode": {
          "coding": [
            {
              "system": "http://snomed.info/sct",
              "code": "28721000087103",
              "display": "[DTaP] TRIPACEL"
            }
          ]
        },
        "patient": {
          "reference": "urn:uuid:527c910e-64aa-4c44-9306-2554735f4d9c"
        },
        "occurrenceDateTime": "2025-03-25",
        "primarySource": true,
        "site": {
          "coding": [
            {
              "system": "http://terminology.hl7.org/CodeSystem/v2-0493",
              "code": "LA",
              "display": "Left arm"
            }
          ]
        },
        "route": {
          "coding": [
            {
              "system": "http://snomed.info/sct",
              "code": 78421000,
              "display": "Intramuscular: IM"
            }
          ]
        }
      }
    }
  ]
}