{
  "resourceType": "Bundle",
  "type": "document",
  "entry": [
    {
      "fullUrl": "urn:uuid:f6693353-0555-4706-b6ac-c87309c7de3b",
      "resource": {
        "resourceType": "Composition",
        "id": "f6693353-0555-4706-b6ac-c87309c7de3b",
        "status": "final",
        "type": {
          "coding": [
            {
              "system": "http://loinc.org",
              "code": "60591-5",
              "display": "Patient summary Document"
            }
          ]
        },
        "subject": {
          "reference": "urn:uuid:2885fdf1-a794-4827-9f67-8f5e49d5f5cf"
        },
        "date": "2025-07-01T16:14:48.197604+00:00",
        "author": [
          {
            "reference": "urn:uuid:psca-author-org",
            "display": "Wellness Way Hospital"
          }
        ],
        "title": "PS-CA Patient Summary",
        "custodian": {
          "reference": "urn:uuid:psca-author-org",
          "display": "Wellness Way Hospital"
        },
        "section": [
          {
            "title": "Allergies",
            "code": {
              "coding": [
                {
                  "system": "http://loinc.org",
                  "code": "48765-2",
                  "display": "Allergies and adverse reactions Document"
                }
              ]
            },
            "entry": [
              {
                "reference": "urn:uuid:c5189408-bbf3-4c9b-96fb-68ba928c4c87"
              },
              {
                "reference": "urn:uuid:14f6054b-4b5c-4b8e-af4d-f41e72a613f7"
              }
            ]
          },
          {
            "title": "Medications",
            "code": {
              "coding": [
                {
                  "system": "http://loinc.org",
                  "code": "10160-0",
                  "display": "History of Medication use Narrative"
                }
              ]
            },
            "entry": [
              {
                "reference": "urn:uuid:5cbdf6e2-6904-422e-aa45-79fa99c24928"
              },
              {
                "reference": "urn:uuid:a17fd046-93a1-46c4-8d20-26c31c837633"
              },
              {
                "reference": "urn:uuid:f2303b25-a078-41b1-a8fc-e49309fc3fa5"
              }
            ]
          },
          {
            "title": "Immunizations",
            "code": {
              "coding": [
                {
                  "system": "http://loinc.org",
                  "code": "11369-6",
                  "display": "History of Immunization Narrative"
                }
              ]
            },
            "entry": [
              {
                "reference": "urn:uuid:48876b55-17ee-458d-9302-ad988936c848"
              },
              {
                "reference": "urn:uuid:29dbbb39-c697-4dc6-9a19-42ef5e0e51bc"
              },
              {
                "reference": "urn:uuid:a36d467a-2910-4e82-8f41-7e884a075776"
              },
              {
                "reference": "urn:uuid:9d7379dd-ddeb-4584-b1ef-502c58cc8c21"
              },
              {
                "reference": "urn:uuid:08141e52-77af-4f60-bbfd-aebc7e2abe70"
              },
              {
                "reference": "urn:uuid:7f6524a0-b813-4bf1-9c14-119f87c3cb43"
              },
              {
                "reference": "urn:uuid:8f872057-5a57-4bcf-a610-6ca0b907080d"
              },
              {
                "reference": "urn:uuid:cbd133e5-2f13-428c-8dbe-38d0e28c22bc"
              },
              {
                "reference": "urn:uuid:631c2889-5885-4e36-b434-d5609c62338c"
              },
              {
                "reference": "urn:uuid:a68d244d-c0e3-42a5-b19f-fd79fb9318f1"
              }
            ]
          }
        ],
        "meta": {
          "profile": [
            "http://fhir.infoway-inforoute.ca/io/psca/StructureDefinition/Composition-ps-ca"
          ]
        }
      }
    },
    {
      "fullUrl": "urn:uuid:2885fdf1-a794-4827-9f67-8f5e49d5f5cf",
      "resource": {
        "resourceType": "Patient",
        "id": "2885fdf1-a794-4827-9f67-8f5e49d5f5cf",
        "identifier": [
          {
            "system": "http://example.org/healthcardnumber",
            "value": "999 806 305"
          }
        ],
        "name": [
          {
            "family": "Bird",
            "given": [
              "Woodstock"
            ]
          }
        ],
        "telecom": [
          {
            "system": "phone",
            "value": "1-472-779-0104",
            "use": "home"
          },
          {
            "system": "email",
            "value": "Woodstock.Bird@outlook.com",
            "use": "home"
          }
        ],
        "gender": "male",
        "birthDate": "2022-02-21",
        "address": [
          {
            "line": [
              "34332 Brandon Mountains Apt. 769"
            ],
            "city": "New Stacyland",
            "state": "Saskatchewan",
            "postalCode": "N4S 3H9",
            "country": "Canada"
          }
        ],
        "photo": [
          {
            "contentType": "image/jpeg",
            "data": ""
          }
        ],
        "meta": {
          "profile": [
            "http://fhir.infoway-inforoute.ca/io/psca/StructureDefinition/Patient-ps-ca"
          ]
        }
      }
    },
    {
      "fullUrl": "urn:uuid:psca-author-org",
      "resource": {
        "resourceType": "Organization",
        "id": "psca-author-org",
        "name": "Wellness Way Hospital",
        "meta": {
          "profile": [
            "http://fhir.infoway-inforoute.ca/io/psca/StructureDefinition/Organization-ps-ca"
          ]
        }
      }
    },
    {
      "fullUrl": "urn:uuid:c5189408-bbf3-4c9b-96fb-68ba928c4c87",
      "resource": {
        "resourceType": "AllergyIntolerance",
        "id": "c5189408-bbf3-4c9b-96fb-68ba928c4c87",
        "clinicalStatus": {
          "coding": [
            {
              "system": "http://terminology.hl7.org/CodeSystem/allergyintolerance-clinical",
              "code": "active"
            }
          ]
        },
        "verificationStatus": {
          "coding": [
            {
              "system": "http://terminology.hl7.org/CodeSystem/allergyintolerance-verification",
              "code": "confirmed"
            }
          ]
        },
        "code": {
          "coding": [
            {
              "system": "http://snomed.info/sct",
              "code": "282100009",
              "display": "Tree nuts"
            }
          ]
        },
        "patient": {
          "reference": "urn:uuid:2885fdf1-a794-4827-9f67-8f5e49d5f5cf"
        },
        "reaction": [
          {
            "manifestation": [
              {
                "coding": [
                  {
                    "system": "http://snomed.info/sct",
                    "code": "422400008",
                    "display": "Rash"
                  }
                ]
              }
            ],
            "severity": "severe"
          }
        ],
        "meta": {
          "profile": [
            "http://fhir.infoway-inforoute.ca/io/psca/StructureDefinition/AllergyIntolerance-ps-ca"
          ]
        }
      }
    },
    {
      "fullUrl": "urn:uuid:14f6054b-4b5c-4b8e-af4d-f41e72a613f7",
      "resource": {
        "resourceType": "AllergyIntolerance",
        "id": "14f6054b-4b5c-4b8e-af4d-f41e72a613f7",
        "clinicalStatus": {
          "coding": [
            {
              "system": "http://terminology.hl7.org/CodeSystem/allergyintolerance-clinical",
              "code": "active"
            }
          ]
        },
        "verificationStatus": {
          "coding": [
            {
              "system": "http://terminology.hl7.org/CodeSystem/allergyintolerance-verification",
              "code": "confirmed"
            }
          ]
        },
        "code": {
          "coding": [
            {
              "system": "http://snomed.info/sct",
              "code": "91937009",
              "display": "Ibuprofen"
            }
          ]
        },
        "patient": {
          "reference": "urn:uuid:2885fdf1-a794-4827-9f67-8f5e49d5f5cf"
        },
        "reaction": [
          {
            "manifestation": [
              {
                "coding": [
                  {
                    "system": "http://snomed.info/sct",
                    "code": "247472004",
                    "display": "Hives"
                  }
                ]
              }
            ],
            "severity": "severe"
          }
        ],
        "meta": {
          "profile": [
            "http://fhir.infoway-inforoute.ca/io/psca/StructureDefinition/AllergyIntolerance-ps-ca"
          ]
        }
      }
    },
    {
      "fullUrl": "urn:uuid:5cbdf6e2-6904-422e-aa45-79fa99c24928",
      "resource": {
        "resourceType": "MedicationStatement",
        "id": "5cbdf6e2-6904-422e-aa45-79fa99c24928",
        "status": "active",
        "medicationCodeableConcept": {
          "coding": [
            {
              "system": "http://terminology.hl7.org/CodeSystem/hc-CCDD",
              "code": "9000973",
              "display": "\talendronic acid (alendronate sodium) 70 mg oral tablet"
            }
          ]
        },
        "subject": {
          "reference": "urn:uuid:2885fdf1-a794-4827-9f67-8f5e49d5f5cf"
        },
        "meta": {
          "profile": [
            "http://fhir.infoway-inforoute.ca/io/psca/StructureDefinition/MedicationStatement-ps-ca"
          ]
        }
      }
    },
    {
      "fullUrl": "urn:uuid:a17fd046-93a1-46c4-8d20-26c31c837633",
      "resource": {
        "resourceType": "MedicationStatement",
        "id": "a17fd046-93a1-46c4-8d20-26c31c837633",
        "status": "active",
        "medicationCodeableConcept": {
          "coding": [
            {
              "system": "http://terminology.hl7.org/CodeSystem/hc-CCDD",
              "code": "9000021",
              "display": "warfarin sodium 5 mg oral tablet"
            }
          ]
        },
        "subject": {
          "reference": "urn:uuid:2885fdf1-a794-4827-9f67-8f5e49d5f5cf"
        },
        "meta": {
          "profile": [
            "http://fhir.infoway-inforoute.ca/io/psca/StructureDefinition/MedicationStatement-ps-ca"
          ]
        }
      }
    },
    {
      "fullUrl": "urn:uuid:f2303b25-a078-41b1-a8fc-e49309fc3fa5",
      "resource": {
        "resourceType": "MedicationStatement",
        "id": "f2303b25-a078-41b1-a8fc-e49309fc3fa5",
        "status": "active",
        "medicationCodeableConcept": {
          "coding": [
            {
              "system": "http://terminology.hl7.org/CodeSystem/hc-CCDD",
              "code": "9000398",
              "display": "amlodipine (amlodipine besylate) 10 mg oral tablet"
            }
          ]
        },
        "subject": {
          "reference": "urn:uuid:2885fdf1-a794-4827-9f67-8f5e49d5f5cf"
        },
        "meta": {
          "profile": [
            "http://fhir.infoway-inforoute.ca/io/psca/StructureDefinition/MedicationStatement-ps-ca"
          ]
        }
      }
    },
    {
      "fullUrl": "urn:uuid:48876b55-17ee-458d-9302-ad988936c848",
      "resource": {
        "resourceType": "Immunization",
        "id": "48876b55-17ee-458d-9302-ad988936c848",
        "status": "completed",
        "vaccineCode": {
          "coding": [
            {
              "system": "http://snomed.info/sct",
              "code": "28721000087103",
              "display": "[DTaP] TRIPACEL"
            }
          ]
        },
        "patient": {
          "reference": "urn:uuid:2885fdf1-a794-4827-9f67-8f5e49d5f5cf"
        },
        "occurrenceDateTime": "2021-01-29T00:00:00",
        "primarySource": true,
        "site": {
          "coding": [
            {
              "system": "http://terminology.hl7.org/CodeSystem/v2-0493",
              "code": "RA",
              "display": "Right arm"
            }
          ]
        },
        "route": {
          "coding": [
            {
              "system": "http://snomed.info/sct",
              "code": "78421000",
              "display": "Intramuscular: IM"
            }
          ]
        },
        "meta": {
          "profile": [
            "http://fhir.infoway-inforoute.ca/io/psca/StructureDefinition/Immunization-ps-ca"
          ]
        }
      }
    },
    {
      "fullUrl": "urn:uuid:29dbbb39-c697-4dc6-9a19-42ef5e0e51bc",
      "resource": {
        "resourceType": "Immunization",
        "id": "29dbbb39-c697-4dc6-9a19-42ef5e0e51bc",
        "status": "completed",
        "vaccineCode": {
          "coding": [
            {
              "system": "http://snomed.info/sct",
              "code": "31541000087105",
              "display": "[Var] VARILRIX"
            }
          ]
        },
        "patient": {
          "reference": "urn:uuid:2885fdf1-a794-4827-9f67-8f5e49d5f5cf"
        },
        "occurrenceDateTime": "2024-12-04T00:00:00",
        "primarySource": true,
        "site": {
          "coding": [
            {
              "system": "http://terminology.hl7.org/CodeSystem/v2-0493",
              "code": "RA",
              "display": "Right arm"
            }
          ]
        },
        "route": {
          "coding": [
            {
              "system": "http://snomed.info/sct",
              "code": "78421000",
              "display": "Intramuscular: IM"
            }
          ]
        },
        "meta": {
          "profile": [
            "http://fhir.infoway-inforoute.ca/io/psca/StructureDefinition/Immunization-ps-ca"
          ]
        }
      }
    },
    {
      "fullUrl": "urn:uuid:a36d467a-2910-4e82-8f41-7e884a075776",
      "resource": {
        "resourceType": "Immunization",
        "id": "a36d467a-2910-4e82-8f41-7e884a075776",
        "status": "completed",
        "vaccineCode": {
          "coding": [
            {
              "system": "http://snomed.info/sct",
              "code": "24381000087107",
              "display": "[Inf] AFLURIA TETRA"
            }
          ]
        },
        "patient": {
          "reference": "urn:uuid:2885fdf1-a794-4827-9f67-8f5e49d5f5cf"
        },
        "occurrenceDateTime": "2022-04-21T00:00:00",
        "primarySource": true,
        "site": {
          "coding": [
            {
              "system": "http://terminology.hl7.org/CodeSystem/v2-0493",
              "code": "RA",
              "display": "Right arm"
            }
          ]
        },
        "route": {
          "coding": [
            {
              "system": "http://snomed.info/sct",
              "code": "78421000",
              "display": "Intramuscular: IM"
            }
          ]
        },
        "meta": {
          "profile": [
            "http://fhir.infoway-inforoute.ca/io/psca/StructureDefinition/Immunization-ps-ca"
          ]
        }
      }
    },
    {
      "fullUrl": "urn:uuid:9d7379dd-ddeb-4584-b1ef-502c58cc8c21",
      "resource": {
        "resourceType": "Immunization",
        "id": "9d7379dd-ddeb-4584-b1ef-502c58cc8c21",
        "status": "completed",
        "vaccineCode": {
          "coding": [
            {
              "system": "http://snomed.info/sct",
              "code": "37651000087101",
              "display": "[COVID-19] SPIKEVAX Bivalent (Original / Omicron BA.4/BA.5) 0.10 mg/mL"
            }
          ]
        },
        "patient": {
          "reference": "urn:uuid:2885fdf1-a794-4827-9f67-8f5e49d5f5cf"
        },
        "occurrenceDateTime": "2020-10-16T00:00:00",
        "primarySource": true,
        "site": {
          "coding": [
            {
              "system": "http://terminology.hl7.org/CodeSystem/v2-0493",
              "code": "LA",
              "display": "Left arm"
            }
          ]
        },
        "route": {
          "coding": [
            {
              "system": "http://snomed.info/sct",
              "code": "78421000",
              "display": "Intramuscular: IM"
            }
          ]
        },
        "meta": {
          "profile": [
            "http://fhir.infoway-inforoute.ca/io/psca/StructureDefinition/Immunization-ps-ca"
          ]
        }
      }
    },
    {
      "fullUrl": "urn:uuid:08141e52-77af-4f60-bbfd-aebc7e2abe70",
      "resource": {
        "resourceType": "Immunization",
        "id": "08141e52-77af-4f60-bbfd-aebc7e2abe70",
        "status": "completed",
        "vaccineCode": {
          "coding": [
            {
              "system": "http://snomed.info/sct",
              "code": "28581000087106",
              "display": "[COVID-19] COMIRNATY (original strain) 30 mcg/0.3 mL"
            }
          ]
        },
        "patient": {
          "reference": "urn:uuid:2885fdf1-a794-4827-9f67-8f5e49d5f5cf"
        },
        "occurrenceDateTime": "2021-12-05T00:00:00",
        "primarySource": true,
        "site": {
          "coding": [
            {
              "system": "http://terminology.hl7.org/CodeSystem/v2-0493",
              "code": "RA",
              "display": "Right arm"
            }
          ]
        },
        "route": {
          "coding": [
            {
              "system": "http://snomed.info/sct",
              "code": "78421000",
              "display": "Intramuscular: IM"
            }
          ]
        },
        "meta": {
          "profile": [
            "http://fhir.infoway-inforoute.ca/io/psca/StructureDefinition/Immunization-ps-ca"
          ]
        }
      }
    },
    {
      "fullUrl": "urn:uuid:7f6524a0-b813-4bf1-9c14-119f87c3cb43",
      "resource": {
        "resourceType": "Immunization",
        "id": "7f6524a0-b813-4bf1-9c14-119f87c3cb43",
        "status": "completed",
        "vaccineCode": {
          "coding": [
            {
              "system": "http://snomed.info/sct",
              "code": "7161000087102",
              "display": "[MMR] M-M-R II"
            }
          ]
        },
        "patient": {
          "reference": "urn:uuid:2885fdf1-a794-4827-9f67-8f5e49d5f5cf"
        },
        "occurrenceDateTime": "2022-04-23T00:00:00",
        "primarySource": true,
        "site": {
          "coding": [
            {
              "system": "http://terminology.hl7.org/CodeSystem/v2-0493",
              "code": "RA",
              "display": "Right arm"
            }
          ]
        },
        "route": {
          "coding": [
            {
              "system": "http://snomed.info/sct",
              "code": "78421000",
              "display": "Intramuscular: IM"
            }
          ]
        },
        "meta": {
          "profile": [
            "http://fhir.infoway-inforoute.ca/io/psca/StructureDefinition/Immunization-ps-ca"
          ]
        }
      }
    },
    {
      "fullUrl": "urn:uuid:8f872057-5a57-4bcf-a610-6ca0b907080d",
      "resource": {
        "resourceType": "Immunization",
        "id": "8f872057-5a57-4bcf-a610-6ca0b907080d",
        "status": "completed",
        "vaccineCode": {
          "coding": [
            {
              "system": "http://snomed.info/sct",
              "code": "24381000087107",
              "display": "[Inf] AFLURIA TETRA"
            }
          ]
        },
        "patient": {
          "reference": "urn:uuid:2885fdf1-a794-4827-9f67-8f5e49d5f5cf"
        },
        "occurrenceDateTime": "2021-04-16T00:00:00",
        "primarySource": true,
        "site": {
          "coding": [
            {
              "system": "http://terminology.hl7.org/CodeSystem/v2-0493",
              "code": "RA",
              "display": "Right arm"
            }
          ]
        },
        "route": {
          "coding": [
            {
              "system": "http://snomed.info/sct",
              "code": "78421000",
              "display": "Intramuscular: IM"
            }
          ]
        },
        "meta": {
          "profile": [
            "http://fhir.infoway-inforoute.ca/io/psca/StructureDefinition/Immunization-ps-ca"
          ]
        }
      }
    },
    {
      "fullUrl": "urn:uuid:cbd133e5-2f13-428c-8dbe-38d0e28c22bc",
      "resource": {
        "resourceType": "Immunization",
        "id": "cbd133e5-2f13-428c-8dbe-38d0e28c22bc",
        "status": "completed",
        "vaccineCode": {
          "coding": [
            {
              "system": "http://snomed.info/sct",
              "code": "7361000087100",
              "display": "[IPV] IMOVAX POLIO"
            }
          ]
        },
        "patient": {
          "reference": "urn:uuid:2885fdf1-a794-4827-9f67-8f5e49d5f5cf"
        },
        "occurrenceDateTime": "2021-12-22T00:00:00",
        "primarySource": true,
        "site": {
          "coding": [
            {
              "system": "http://terminology.hl7.org/CodeSystem/v2-0493",
              "code": "RA",
              "display": "Right arm"
            }
          ]
        },
        "route": {
          "coding": [
            {
              "system": "http://snomed.info/sct",
              "code": "78421000",
              "display": "Intramuscular: IM"
            }
          ]
        },
        "meta": {
          "profile": [
            "http://fhir.infoway-inforoute.ca/io/psca/StructureDefinition/Immunization-ps-ca"
          ]
        }
      }
    },
    {
      "fullUrl": "urn:uuid:631c2889-5885-4e36-b434-d5609c62338c",
      "resource": {
        "resourceType": "Immunization",
        "id": "631c2889-5885-4e36-b434-d5609c62338c",
        "status": "completed",
        "vaccineCode": {
          "coding": [
            {
              "system": "http://snomed.info/sct",
              "code": "24381000087107",
              "display": "[Inf] AFLURIA TETRA"
            }
          ]
        },
        "patient": {
          "reference": "urn:uuid:2885fdf1-a794-4827-9f67-8f5e49d5f5cf"
        },
        "occurrenceDateTime": "2020-06-23T00:00:00",
        "primarySource": true,
        "site": {
          "coding": [
            {
              "system": "http://terminology.hl7.org/CodeSystem/v2-0493",
              "code": "RA",
              "display": "Right arm"
            }
          ]
        },
        "route": {
          "coding": [
            {
              "system": "http://snomed.info/sct",
              "code": "78421000",
              "display": "Intramuscular: IM"
            }
          ]
        },
        "meta": {
          "profile": [
            "http://fhir.infoway-inforoute.ca/io/psca/StructureDefinition/Immunization-ps-ca"
          ]
        }
      }
    },
    {
      "fullUrl": "urn:uuid:a68d244d-c0e3-42a5-b19f-fd79fb9318f1",
      "resource": {
        "resourceType": "Immunization",
        "id": "a68d244d-c0e3-42a5-b19f-fd79fb9318f1",
        "status": "completed",
        "vaccineCode": {
          "coding": [
            {
              "system": "http://snomed.info/sct",
              "code": "28581000087106",
              "display": "[COVID-19] COMIRNATY (original strain) 30 mcg/0.3 mL"
            }
          ]
        },
        "patient": {
          "reference": "urn:uuid:2885fdf1-a794-4827-9f67-8f5e49d5f5cf"
        },
        "occurrenceDateTime": "2021-10-07T00:00:00",
        "primarySource": true,
        "site": {
          "coding": [
            {
              "system": "http://terminology.hl7.org/CodeSystem/v2-0493",
              "code": "LA",
              "display": "Left arm"
            }
          ]
        },
        "route": {
          "coding": [
            {
              "system": "http://snomed.info/sct",
              "code": "78421000",
              "display": "Intramuscular: IM"
            }
          ]
        },
        "meta": {
          "profile": [
            "http://fhir.infoway-inforoute.ca/io/psca/StructureDefinition/Immunization-ps-ca"
          ]
        }
      }
    }
  ]
}