{
  "resourceType": "Bundle",
  "type": "document",
  "entry": [
    {
      "fullUrl": "urn:uuid:1df02c9e-81c8-43bd-a2ee-ad1550d8df95",
      "resource": {
        "resourceType": "Composition",
        "id": "1df02c9e-81c8-43bd-a2ee-ad1550d8df95",
        "status": "final",
        "type": {
          "coding": [
            {
              "system": "http://loinc.org",
              "code": "60591-5",
              "display": "Patient summary Document"
            }
          ]
        },
        "subject": {
          "reference": "urn:uuid:805ad2e5-2e11-4845-91c6-6600f1119622"
        },
        "date": "2025-07-01T16:14:47.747666+00:00",
        "author": [
          {
            "reference": "urn:uuid:psca-author-org",
            "display": "Wellness Way Hospital"
          }
        ],
        "title": "PS-CA Patient Summary",
        "custodian": {
          "reference": "urn:uuid:psca-author-org",
          "display": "Wellness Way Hospital"
        },
        "section": [
          {
            "title": "Allergies",
            "code": {
              "coding": [
                {
                  "system": "http://loinc.org",
                  "code": "48765-2",
                  "display": "Allergies and adverse reactions Document"
                }
              ]
            },
            "entry": [
              {
                "reference": "urn:uuid:a75be290-ca80-4fd6-800d-92bd132de2d2"
              },
              {
                "reference": "urn:uuid:fec038cf-8ea4-44e1-b36b-96bde827f5a1"
              }
            ]
          },
          {
            "title": "Medications",
            "code": {
              "coding": [
                {
                  "system": "http://loinc.org",
                  "code": "10160-0",
                  "display": "History of Medication use Narrative"
                }
              ]
            },
            "entry": [
              {
                "reference": "urn:uuid:dfee12d6-62ca-41f9-9518-d79d3deaae8b"
              }
            ]
          },
          {
            "title": "Immunizations",
            "code": {
              "coding": [
                {
                  "system": "http://loinc.org",
                  "code": "11369-6",
                  "display": "History of Immunization Narrative"
                }
              ]
            },
            "entry": [
              {
                "reference": "urn:uuid:117b7846-2c48-4f2f-b499-ae1c082709eb"
              },
              {
                "reference": "urn:uuid:a565ce8c-3d2a-4686-8823-adf9081a6775"
              },
              {
                "reference": "urn:uuid:3b4aa5e4-dd6b-4323-9160-b12ccd9ff9f1"
              },
              {
                "reference": "urn:uuid:a406b7b9-ffdd-4eac-9314-a9a818dfd913"
              },
              {
                "reference": "urn:uuid:6c3077ff-47f3-4bb8-ad12-db9da7937d95"
              },
              {
                "reference": "urn:uuid:89fdec6f-a5be-4a2b-bb01-1096716baaaf"
              },
              {
                "reference": "urn:uuid:0a2832fd-522a-4e3b-85ac-e05d03b7d4f3"
              },
              {
                "reference": "urn:uuid:654af429-a9cf-48c3-893e-26c5d5367fdf"
              }
            ]
          }
        ],
        "meta": {
          "profile": [
            "http://fhir.infoway-inforoute.ca/io/psca/StructureDefinition/Composition-ps-ca"
          ]
        }
      }
    },
    {
      "fullUrl": "urn:uuid:805ad2e5-2e11-4845-91c6-6600f1119622",
      "resource": {
        "resourceType": "Patient",
        "id": "805ad2e5-2e11-4845-91c6-6600f1119622",
        "identifier": [
          {
            "system": "http://example.org/healthcardnumber",
            "value": "999 586 662"
          }
        ],
        "name": [
          {
            "family": "Bird",
            "given": [
              "Tweety"
            ]
          }
        ],
        "telecom": [
          {
            "system": "phone",
            "value": "+1 (422) 292-7065",
            "use": "home"
          },
          {
            "system": "email",
            "value": "Tweety.Bird@outlook.com",
            "use": "home"
          }
        ],
        "gender": "other",
        "birthDate": "1963-03-10",
        "address": [
          {
            "line": [
              "655 Obrien Pass"
            ],
            "city": "Marcusbury",
            "state": "Newfoundland and Labrador",
            "postalCode": "M2Y 8H6",
            "country": "Canada"
          }
        ],
        "photo": [
          {
            "contentType": "image/jpeg",
            "data": ""
          }
        ],
        "meta": {
          "profile": [
            "http://fhir.infoway-inforoute.ca/io/psca/StructureDefinition/Patient-ps-ca"
          ]
        }
      }
    },
    {
      "fullUrl": "urn:uuid:psca-author-org",
      "resource": {
        "resourceType": "Organization",
        "id": "psca-author-org",
        "name": "Wellness Way Hospital",
        "meta": {
          "profile": [
            "http://fhir.infoway-inforoute.ca/io/psca/StructureDefinition/Organization-ps-ca"
          ]
        }
      }
    },
    {
      "fullUrl": "urn:uuid:a75be290-ca80-4fd6-800d-92bd132de2d2",
      "resource": {
        "resourceType": "AllergyIntolerance",
        "id": "a75be290-ca80-4fd6-800d-92bd132de2d2",
        "clinicalStatus": {
          "coding": [
            {
              "system": "http://terminology.hl7.org/CodeSystem/allergyintolerance-clinical",
              "code": "active"
            }
          ]
        },
        "verificationStatus": {
          "coding": [
            {
              "system": "http://terminology.hl7.org/CodeSystem/allergyintolerance-verification",
              "code": "confirmed"
            }
          ]
        },
        "code": {
          "coding": [
            {
              "system": "http://snomed.info/sct",
              "code": "91930004",
              "display": "Latex"
            }
          ]
        },
        "patient": {
          "reference": "urn:uuid:805ad2e5-2e11-4845-91c6-6600f1119622"
        },
        "reaction": [
          {
            "manifestation": [
              {
                "coding": [
                  {
                    "system": "http://snomed.info/sct",
                    "code": "247472004",
                    "display": "Hives"
                  }
                ]
              }
            ],
            "severity": "severe"
          }
        ],
        "meta": {
          "profile": [
            "http://fhir.infoway-inforoute.ca/io/psca/StructureDefinition/AllergyIntolerance-ps-ca"
          ]
        }
      }
    },
    {
      "fullUrl": "urn:uuid:fec038cf-8ea4-44e1-b36b-96bde827f5a1",
      "resource": {
        "resourceType": "AllergyIntolerance",
        "id": "fec038cf-8ea4-44e1-b36b-96bde827f5a1",
        "clinicalStatus": {
          "coding": [
            {
              "system": "http://terminology.hl7.org/CodeSystem/allergyintolerance-clinical",
              "code": "active"
            }
          ]
        },
        "verificationStatus": {
          "coding": [
            {
              "system": "http://terminology.hl7.org/CodeSystem/allergyintolerance-verification",
              "code": "confirmed"
            }
          ]
        },
        "code": {
          "coding": [
            {
              "system": "http://snomed.info/sct",
              "code": "227493005",
              "display": "Milk protein"
            }
          ]
        },
        "patient": {
          "reference": "urn:uuid:805ad2e5-2e11-4845-91c6-6600f1119622"
        },
        "reaction": [
          {
            "manifestation": [
              {
                "coding": [
                  {
                    "system": "http://snomed.info/sct",
                    "code": "422400008",
                    "display": "Rash"
                  }
                ]
              }
            ],
            "severity": "moderate"
          }
        ],
        "meta": {
          "profile": [
            "http://fhir.infoway-inforoute.ca/io/psca/StructureDefinition/AllergyIntolerance-ps-ca"
          ]
        }
      }
    },
    {
      "fullUrl": "urn:uuid:dfee12d6-62ca-41f9-9518-d79d3deaae8b",
      "resource": {
        "resourceType": "MedicationStatement",
        "id": "dfee12d6-62ca-41f9-9518-d79d3deaae8b",
        "status": "active",
        "medicationCodeableConcept": {
          "coding": [
            {
              "system": "http://terminology.hl7.org/CodeSystem/hc-CCDD",
              "code": "9000809",
              "display": "montelukast (montelukast sodium) 10 mg oral tablet"
            }
          ]
        },
        "subject": {
          "reference": "urn:uuid:805ad2e5-2e11-4845-91c6-6600f1119622"
        },
        "meta": {
          "profile": [
            "http://fhir.infoway-inforoute.ca/io/psca/StructureDefinition/MedicationStatement-ps-ca"
          ]
        }
      }
    },
    {
      "fullUrl": "urn:uuid:117b7846-2c48-4f2f-b499-ae1c082709eb",
      "resource": {
        "resourceType": "Immunization",
        "id": "117b7846-2c48-4f2f-b499-ae1c082709eb",
        "status": "completed",
        "vaccineCode": {
          "coding": [
            {
              "system": "http://snomed.info/sct",
              "code": "37651000087101",
              "display": "[COVID-19] SPIKEVAX Bivalent (Original / Omicron BA.4/BA.5) 0.10 mg/mL"
            }
          ]
        },
        "patient": {
          "reference": "urn:uuid:805ad2e5-2e11-4845-91c6-6600f1119622"
        },
        "occurrenceDateTime": "2024-04-16T00:00:00",
        "primarySource": true,
        "site": {
          "coding": [
            {
              "system": "http://terminology.hl7.org/CodeSystem/v2-0493",
              "code": "RA",
              "display": "Right arm"
            }
          ]
        },
        "route": {
          "coding": [
            {
              "system": "http://snomed.info/sct",
              "code": "78421000",
              "display": "Intramuscular: IM"
            }
          ]
        },
        "meta": {
          "profile": [
            "http://fhir.infoway-inforoute.ca/io/psca/StructureDefinition/Immunization-ps-ca"
          ]
        }
      }
    },
    {
      "fullUrl": "urn:uuid:a565ce8c-3d2a-4686-8823-adf9081a6775",
      "resource": {
        "resourceType": "Immunization",
        "id": "a565ce8c-3d2a-4686-8823-adf9081a6775",
        "status": "completed",
        "vaccineCode": {
          "coding": [
            {
              "system": "http://snomed.info/sct",
              "code": "28721000087103",
              "display": "[DTaP] TRIPACEL"
            }
          ]
        },
        "patient": {
          "reference": "urn:uuid:805ad2e5-2e11-4845-91c6-6600f1119622"
        },
        "occurrenceDateTime": "2024-09-18T00:00:00",
        "primarySource": true,
        "site": {
          "coding": [
            {
              "system": "http://terminology.hl7.org/CodeSystem/v2-0493",
              "code": "LA",
              "display": "Left arm"
            }
          ]
        },
        "route": {
          "coding": [
            {
              "system": "http://snomed.info/sct",
              "code": "78421000",
              "display": "Intramuscular: IM"
            }
          ]
        },
        "meta": {
          "profile": [
            "http://fhir.infoway-inforoute.ca/io/psca/StructureDefinition/Immunization-ps-ca"
          ]
        }
      }
    },
    {
      "fullUrl": "urn:uuid:3b4aa5e4-dd6b-4323-9160-b12ccd9ff9f1",
      "resource": {
        "resourceType": "Immunization",
        "id": "3b4aa5e4-dd6b-4323-9160-b12ccd9ff9f1",
        "status": "completed",
        "vaccineCode": {
          "coding": [
            {
              "system": "http://snomed.info/sct",
              "code": "24381000087107",
              "display": "[Inf] AFLURIA TETRA"
            }
          ]
        },
        "patient": {
          "reference": "urn:uuid:805ad2e5-2e11-4845-91c6-6600f1119622"
        },
        "occurrenceDateTime": "2025-03-14T00:00:00",
        "primarySource": true,
        "site": {
          "coding": [
            {
              "system": "http://terminology.hl7.org/CodeSystem/v2-0493",
              "code": "LA",
              "display": "Left arm"
            }
          ]
        },
        "route": {
          "coding": [
            {
              "system": "http://snomed.info/sct",
              "code": "78421000",
              "display": "Intramuscular: IM"
            }
          ]
        },
        "meta": {
          "profile": [
            "http://fhir.infoway-inforoute.ca/io/psca/StructureDefinition/Immunization-ps-ca"
          ]
        }
      }
    },
    {
      "fullUrl": "urn:uuid:a406b7b9-ffdd-4eac-9314-a9a818dfd913",
      "resource": {
        "resourceType": "Immunization",
        "id": "a406b7b9-ffdd-4eac-9314-a9a818dfd913",
        "status": "completed",
        "vaccineCode": {
          "coding": [
            {
              "system": "http://snomed.info/sct",
              "code": "31541000087105",
              "display": "[Var] VARILRIX"
            }
          ]
        },
        "patient": {
          "reference": "urn:uuid:805ad2e5-2e11-4845-91c6-6600f1119622"
        },
        "occurrenceDateTime": "2025-01-18T00:00:00",
        "primarySource": true,
        "site": {
          "coding": [
            {
              "system": "http://terminology.hl7.org/CodeSystem/v2-0493",
              "code": "LA",
              "display": "Left arm"
            }
          ]
        },
        "route": {
          "coding": [
            {
              "system": "http://snomed.info/sct",
              "code": "78421000",
              "display": "Intramuscular: IM"
            }
          ]
        },
        "meta": {
          "profile": [
            "http://fhir.infoway-inforoute.ca/io/psca/StructureDefinition/Immunization-ps-ca"
          ]
        }
      }
    },
    {
      "fullUrl": "urn:uuid:6c3077ff-47f3-4bb8-ad12-db9da7937d95",
      "resource": {
        "resourceType": "Immunization",
        "id": "6c3077ff-47f3-4bb8-ad12-db9da7937d95",
        "status": "completed",
        "vaccineCode": {
          "coding": [
            {
              "system": "http://snomed.info/sct",
              "code": "51471000087104",
              "display": "[COVID-19] COMIRNATY Omicron XBB.1.5 30 mcg/0.3 mL"
            }
          ]
        },
        "patient": {
          "reference": "urn:uuid:805ad2e5-2e11-4845-91c6-6600f1119622"
        },
        "occurrenceDateTime": "2022-01-29T00:00:00",
        "primarySource": true,
        "site": {
          "coding": [
            {
              "system": "http://terminology.hl7.org/CodeSystem/v2-0493",
              "code": "LA",
              "display": "Left arm"
            }
          ]
        },
        "route": {
          "coding": [
            {
              "system": "http://snomed.info/sct",
              "code": "78421000",
              "display": "Intramuscular: IM"
            }
          ]
        },
        "meta": {
          "profile": [
            "http://fhir.infoway-inforoute.ca/io/psca/StructureDefinition/Immunization-ps-ca"
          ]
        }
      }
    },
    {
      "fullUrl": "urn:uuid:89fdec6f-a5be-4a2b-bb01-1096716baaaf",
      "resource": {
        "resourceType": "Immunization",
        "id": "89fdec6f-a5be-4a2b-bb01-1096716baaaf",
        "status": "completed",
        "vaccineCode": {
          "coding": [
            {
              "system": "http://snomed.info/sct",
              "code": "7161000087102",
              "display": "[MMR] M-M-R II"
            }
          ]
        },
        "patient": {
          "reference": "urn:uuid:805ad2e5-2e11-4845-91c6-6600f1119622"
        },
        "occurrenceDateTime": "2021-09-01T00:00:00",
        "primarySource": true,
        "site": {
          "coding": [
            {
              "system": "http://terminology.hl7.org/CodeSystem/v2-0493",
              "code": "RA",
              "display": "Right arm"
            }
          ]
        },
        "route": {
          "coding": [
            {
              "system": "http://snomed.info/sct",
              "code": "78421000",
              "display": "Intramuscular: IM"
            }
          ]
        },
        "meta": {
          "profile": [
            "http://fhir.infoway-inforoute.ca/io/psca/StructureDefinition/Immunization-ps-ca"
          ]
        }
      }
    },
    {
      "fullUrl": "urn:uuid:0a2832fd-522a-4e3b-85ac-e05d03b7d4f3",
      "resource": {
        "resourceType": "Immunization",
        "id": "0a2832fd-522a-4e3b-85ac-e05d03b7d4f3",
        "status": "completed",
        "vaccineCode": {
          "coding": [
            {
              "system": "http://snomed.info/sct",
              "code": "51471000087104",
              "display": "[COVID-19] COMIRNATY Omicron XBB.1.5 30 mcg/0.3 mL"
            }
          ]
        },
        "patient": {
          "reference": "urn:uuid:805ad2e5-2e11-4845-91c6-6600f1119622"
        },
        "occurrenceDateTime": "2022-12-05T00:00:00",
        "primarySource": true,
        "site": {
          "coding": [
            {
              "system": "http://terminology.hl7.org/CodeSystem/v2-0493",
              "code": "LA",
              "display": "Left arm"
            }
          ]
        },
        "route": {
          "coding": [
            {
              "system": "http://snomed.info/sct",
              "code": "78421000",
              "display": "Intramuscular: IM"
            }
          ]
        },
        "meta": {
          "profile": [
            "http://fhir.infoway-inforoute.ca/io/psca/StructureDefinition/Immunization-ps-ca"
          ]
        }
      }
    },
    {
      "fullUrl": "urn:uuid:654af429-a9cf-48c3-893e-26c5d5367fdf",
      "resource": {
        "resourceType": "Immunization",
        "id": "654af429-a9cf-48c3-893e-26c5d5367fdf",
        "status": "completed",
        "vaccineCode": {
          "coding": [
            {
              "system": "http://snomed.info/sct",
              "code": "24381000087107",
              "display": "[Inf] AFLURIA TETRA"
            }
          ]
        },
        "patient": {
          "reference": "urn:uuid:805ad2e5-2e11-4845-91c6-6600f1119622"
        },
        "occurrenceDateTime": "2024-04-27T00:00:00",
        "primarySource": true,
        "site": {
          "coding": [
            {
              "system": "http://terminology.hl7.org/CodeSystem/v2-0493",
              "code": "RA",
              "display": "Right arm"
            }
          ]
        },
        "route": {
          "coding": [
            {
              "system": "http://snomed.info/sct",
              "code": "78421000",
              "display": "Intramuscular: IM"
            }
          ]
        },
        "meta": {
          "profile": [
            "http://fhir.infoway-inforoute.ca/io/psca/StructureDefinition/Immunization-ps-ca"
          ]
        }
      }
    }
  ]
}