{
  "resourceType": "Bundle",
  "type": "document",
  "entry": [
    {
      "fullUrl": "urn:uuid:90ba69ad-249a-42a9-984a-a4d95f969970",
      "resource": {
        "resourceType": "Composition",
        "id": "90ba69ad-249a-42a9-984a-a4d95f969970",
        "status": "final",
        "type": {
          "coding": [
            {
              "system": "http://loinc.org",
              "code": "60591-5",
              "display": "Patient summary Document"
            }
          ]
        },
        "subject": {
          "reference": "urn:uuid:c13ab710-ea8f-4bfb-b6bb-83666ee6e201"
        },
        "date": "2025-06-30T16:25:29.947298+00:00",
        "author": [
          {
            "reference": "urn:uuid:psca-author-org",
            "display": "Wellness Way Hospital"
          }
        ],
        "title": "PS-CA Patient Summary",
        "custodian": {
          "reference": "urn:uuid:psca-author-org",
          "display": "Wellness Way Hospital"
        },
        "section": [
          {
            "title": "Allergies",
            "code": {
              "coding": [
                {
                  "system": "http://loinc.org",
                  "code": "48765-2",
                  "display": "Allergies and adverse reactions Document"
                }
              ]
            },
            "entry": [
              {
                "reference": "urn:uuid:e8b0f386-66a6-422f-a833-47b79ba868c6"
              },
              {
                "reference": "urn:uuid:3a48fe6a-b5c1-4f4a-842b-0a9d5ca8e6af"
              }
            ]
          },
          {
            "title": "Medications",
            "code": {
              "coding": [
                {
                  "system": "http://loinc.org",
                  "code": "10160-0",
                  "display": "History of Medication use Narrative"
                }
              ]
            },
            "entry": [
              {
                "reference": "urn:uuid:de56fc64-6baa-4970-b955-d702c6615ae2"
              }
            ]
          },
          {
            "title": "Immunizations",
            "code": {
              "coding": [
                {
                  "system": "http://loinc.org",
                  "code": "11369-6",
                  "display": "History of Immunization Narrative"
                }
              ]
            },
            "entry": [
              {
                "reference": "urn:uuid:41e8eca4-11fb-4340-b209-271a9d0de8a0"
              },
              {
                "reference": "urn:uuid:72d998bb-803f-4a7e-af6b-3dabe5823850"
              },
              {
                "reference": "urn:uuid:0ca93b99-0b03-4d93-af7b-ba7d9315b4fd"
              },
              {
                "reference": "urn:uuid:d39b04c8-5375-4ce7-84b0-965cb93f1f79"
              },
              {
                "reference": "urn:uuid:3ee424ab-89dc-4ad5-bb8c-9656a88981d7"
              },
              {
                "reference": "urn:uuid:76810063-1dd7-4c61-8653-eb26b3033bbd"
              },
              {
                "reference": "urn:uuid:ab57f627-a855-421f-b720-73a973e16ab6"
              },
              {
                "reference": "urn:uuid:0813cf73-adda-4dd5-b755-0b0fafc91329"
              }
            ]
          }
        ]
      }
    },
    {
      "fullUrl": "urn:uuid:c13ab710-ea8f-4bfb-b6bb-83666ee6e201",
      "resource": {
        "resourceType": "Patient",
        "id": "c13ab710-ea8f-4bfb-b6bb-83666ee6e201",
        "identifier": [
          {
            "system": "http://example.org/healthcardnumber",
            "value": "999 586 662"
          }
        ],
        "name": [
          {
            "family": "Bird",
            "given": [
              "Tweety"
            ]
          }
        ],
        "telecom": [
          {
            "system": "phone",
            "value": "+1 (422) 292-7065",
            "use": "home"
          },
          {
            "system": "email",
            "value": "Tweety.Bird@outlook.com",
            "use": "home"
          }
        ],
        "gender": "other",
        "birthDate": "1963-03-10",
        "address": [
          {
            "line": [
              "655 Obrien Pass"
            ],
            "city": "Marcusbury",
            "state": "Newfoundland and Labrador",
            "postalCode": "M2Y 8H6",
            "country": "Canada"
          }
        ],
        "photo": [
          {
            "contentType": "image/jpeg",
            "data": ""
          }
        ]
      }
    },
    {
      "fullUrl": "urn:uuid:psca-author-org",
      "resource": {
        "resourceType": "Organization",
        "id": "psca-author-org",
        "name": "Wellness Way Hospital"
      }
    },
    {
      "fullUrl": "urn:uuid:e8b0f386-66a6-422f-a833-47b79ba868c6",
      "resource": {
        "resourceType": "AllergyIntolerance",
        "id": "e8b0f386-66a6-422f-a833-47b79ba868c6",
        "clinicalStatus": {
          "coding": [
            {
              "system": "http://terminology.hl7.org/CodeSystem/allergyintolerance-clinical",
              "code": "active"
            }
          ]
        },
        "verificationStatus": {
          "coding": [
            {
              "system": "http://terminology.hl7.org/CodeSystem/allergyintolerance-verification",
              "code": "confirmed"
            }
          ]
        },
        "code": {
          "coding": [
            {
              "system": "http://snomed.info/sct",
              "code": "91930004",
              "display": "Latex"
            }
          ]
        },
        "patient": {
          "reference": "urn:uuid:c13ab710-ea8f-4bfb-b6bb-83666ee6e201"
        },
        "reaction": [
          {
            "manifestation": [
              {
                "coding": [
                  {
                    "system": "http://snomed.info/sct",
                    "code": "247472004",
                    "display": "Hives"
                  }
                ]
              }
            ],
            "severity": "severe"
          }
        ]
      }
    },
    {
      "fullUrl": "urn:uuid:3a48fe6a-b5c1-4f4a-842b-0a9d5ca8e6af",
      "resource": {
        "resourceType": "AllergyIntolerance",
        "id": "3a48fe6a-b5c1-4f4a-842b-0a9d5ca8e6af",
        "clinicalStatus": {
          "coding": [
            {
              "system": "http://terminology.hl7.org/CodeSystem/allergyintolerance-clinical",
              "code": "active"
            }
          ]
        },
        "verificationStatus": {
          "coding": [
            {
              "system": "http://terminology.hl7.org/CodeSystem/allergyintolerance-verification",
              "code": "confirmed"
            }
          ]
        },
        "code": {
          "coding": [
            {
              "system": "http://snomed.info/sct",
              "code": "227493005",
              "display": "Milk protein"
            }
          ]
        },
        "patient": {
          "reference": "urn:uuid:c13ab710-ea8f-4bfb-b6bb-83666ee6e201"
        },
        "reaction": [
          {
            "manifestation": [
              {
                "coding": [
                  {
                    "system": "http://snomed.info/sct",
                    "code": "422400008",
                    "display": "Rash"
                  }
                ]
              }
            ],
            "severity": "moderate"
          }
        ]
      }
    },
    {
      "fullUrl": "urn:uuid:de56fc64-6baa-4970-b955-d702c6615ae2",
      "resource": {
        "resourceType": "MedicationStatement",
        "id": "de56fc64-6baa-4970-b955-d702c6615ae2",
        "status": "active",
        "medicationCodeableConcept": {
          "coding": [
            {
              "system": "http://terminology.hl7.org/CodeSystem/hc-CCDD",
              "code": "9000809",
              "display": "montelukast (montelukast sodium) 10 mg oral tablet"
            }
          ]
        },
        "subject": {
          "reference": "urn:uuid:c13ab710-ea8f-4bfb-b6bb-83666ee6e201"
        }
      }
    },
    {
      "fullUrl": "urn:uuid:41e8eca4-11fb-4340-b209-271a9d0de8a0",
      "resource": {
        "resourceType": "Immunization",
        "id": "41e8eca4-11fb-4340-b209-271a9d0de8a0",
        "status": "completed",
        "vaccineCode": {
          "coding": [
            {
              "system": "http://snomed.info/sct",
              "code": "37651000087101",
              "display": "[COVID-19] SPIKEVAX Bivalent (Original / Omicron BA.4/BA.5) 0.10 mg/mL"
            }
          ]
        },
        "patient": {
          "reference": "urn:uuid:c13ab710-ea8f-4bfb-b6bb-83666ee6e201"
        },
        "occurrenceDateTime": "2024-04-16T00:00:00",
        "primarySource": true,
        "site": {
          "coding": [
            {
              "system": "http://terminology.hl7.org/CodeSystem/v2-0493",
              "code": "RA",
              "display": "Right arm"
            }
          ]
        },
        "route": {
          "coding": [
            {
              "system": "http://snomed.info/sct",
              "code": "78421000",
              "display": "Intramuscular: IM"
            }
          ]
        }
      }
    },
    {
      "fullUrl": "urn:uuid:72d998bb-803f-4a7e-af6b-3dabe5823850",
      "resource": {
        "resourceType": "Immunization",
        "id": "72d998bb-803f-4a7e-af6b-3dabe5823850",
        "status": "completed",
        "vaccineCode": {
          "coding": [
            {
              "system": "http://snomed.info/sct",
              "code": "28721000087103",
              "display": "[DTaP] TRIPACEL"
            }
          ]
        },
        "patient": {
          "reference": "urn:uuid:c13ab710-ea8f-4bfb-b6bb-83666ee6e201"
        },
        "occurrenceDateTime": "2024-09-18T00:00:00",
        "primarySource": true,
        "site": {
          "coding": [
            {
              "system": "http://terminology.hl7.org/CodeSystem/v2-0493",
              "code": "LA",
              "display": "Left arm"
            }
          ]
        },
        "route": {
          "coding": [
            {
              "system": "http://snomed.info/sct",
              "code": "78421000",
              "display": "Intramuscular: IM"
            }
          ]
        }
      }
    },
    {
      "fullUrl": "urn:uuid:0ca93b99-0b03-4d93-af7b-ba7d9315b4fd",
      "resource": {
        "resourceType": "Immunization",
        "id": "0ca93b99-0b03-4d93-af7b-ba7d9315b4fd",
        "status": "completed",
        "vaccineCode": {
          "coding": [
            {
              "system": "http://snomed.info/sct",
              "code": "24381000087107",
              "display": "[Inf] AFLURIA TETRA"
            }
          ]
        },
        "patient": {
          "reference": "urn:uuid:c13ab710-ea8f-4bfb-b6bb-83666ee6e201"
        },
        "occurrenceDateTime": "2025-03-14T00:00:00",
        "primarySource": true,
        "site": {
          "coding": [
            {
              "system": "http://terminology.hl7.org/CodeSystem/v2-0493",
              "code": "LA",
              "display": "Left arm"
            }
          ]
        },
        "route": {
          "coding": [
            {
              "system": "http://snomed.info/sct",
              "code": "78421000",
              "display": "Intramuscular: IM"
            }
          ]
        }
      }
    },
    {
      "fullUrl": "urn:uuid:d39b04c8-5375-4ce7-84b0-965cb93f1f79",
      "resource": {
        "resourceType": "Immunization",
        "id": "d39b04c8-5375-4ce7-84b0-965cb93f1f79",
        "status": "completed",
        "vaccineCode": {
          "coding": [
            {
              "system": "http://snomed.info/sct",
              "code": "31541000087105",
              "display": "[Var] VARILRIX"
            }
          ]
        },
        "patient": {
          "reference": "urn:uuid:c13ab710-ea8f-4bfb-b6bb-83666ee6e201"
        },
        "occurrenceDateTime": "2025-01-18T00:00:00",
        "primarySource": true,
        "site": {
          "coding": [
            {
              "system": "http://terminology.hl7.org/CodeSystem/v2-0493",
              "code": "LA",
              "display": "Left arm"
            }
          ]
        },
        "route": {
          "coding": [
            {
              "system": "http://snomed.info/sct",
              "code": "78421000",
              "display": "Intramuscular: IM"
            }
          ]
        }
      }
    },
    {
      "fullUrl": "urn:uuid:3ee424ab-89dc-4ad5-bb8c-9656a88981d7",
      "resource": {
        "resourceType": "Immunization",
        "id": "3ee424ab-89dc-4ad5-bb8c-9656a88981d7",
        "status": "completed",
        "vaccineCode": {
          "coding": [
            {
              "system": "http://snomed.info/sct",
              "code": "51471000087104",
              "display": "[COVID-19] COMIRNATY Omicron XBB.1.5 30 mcg/0.3 mL"
            }
          ]
        },
        "patient": {
          "reference": "urn:uuid:c13ab710-ea8f-4bfb-b6bb-83666ee6e201"
        },
        "occurrenceDateTime": "2022-01-29T00:00:00",
        "primarySource": true,
        "site": {
          "coding": [
            {
              "system": "http://terminology.hl7.org/CodeSystem/v2-0493",
              "code": "LA",
              "display": "Left arm"
            }
          ]
        },
        "route": {
          "coding": [
            {
              "system": "http://snomed.info/sct",
              "code": "78421000",
              "display": "Intramuscular: IM"
            }
          ]
        }
      }
    },
    {
      "fullUrl": "urn:uuid:76810063-1dd7-4c61-8653-eb26b3033bbd",
      "resource": {
        "resourceType": "Immunization",
        "id": "76810063-1dd7-4c61-8653-eb26b3033bbd",
        "status": "completed",
        "vaccineCode": {
          "coding": [
            {
              "system": "http://snomed.info/sct",
              "code": "7161000087102",
              "display": "[MMR] M-M-R II"
            }
          ]
        },
        "patient": {
          "reference": "urn:uuid:c13ab710-ea8f-4bfb-b6bb-83666ee6e201"
        },
        "occurrenceDateTime": "2021-09-01T00:00:00",
        "primarySource": true,
        "site": {
          "coding": [
            {
              "system": "http://terminology.hl7.org/CodeSystem/v2-0493",
              "code": "RA",
              "display": "Right arm"
            }
          ]
        },
        "route": {
          "coding": [
            {
              "system": "http://snomed.info/sct",
              "code": "78421000",
              "display": "Intramuscular: IM"
            }
          ]
        }
      }
    },
    {
      "fullUrl": "urn:uuid:ab57f627-a855-421f-b720-73a973e16ab6",
      "resource": {
        "resourceType": "Immunization",
        "id": "ab57f627-a855-421f-b720-73a973e16ab6",
        "status": "completed",
        "vaccineCode": {
          "coding": [
            {
              "system": "http://snomed.info/sct",
              "code": "51471000087104",
              "display": "[COVID-19] COMIRNATY Omicron XBB.1.5 30 mcg/0.3 mL"
            }
          ]
        },
        "patient": {
          "reference": "urn:uuid:c13ab710-ea8f-4bfb-b6bb-83666ee6e201"
        },
        "occurrenceDateTime": "2022-12-05T00:00:00",
        "primarySource": true,
        "site": {
          "coding": [
            {
              "system": "http://terminology.hl7.org/CodeSystem/v2-0493",
              "code": "LA",
              "display": "Left arm"
            }
          ]
        },
        "route": {
          "coding": [
            {
              "system": "http://snomed.info/sct",
              "code": "78421000",
              "display": "Intramuscular: IM"
            }
          ]
        }
      }
    },
    {
      "fullUrl": "urn:uuid:0813cf73-adda-4dd5-b755-0b0fafc91329",
      "resource": {
        "resourceType": "Immunization",
        "id": "0813cf73-adda-4dd5-b755-0b0fafc91329",
        "status": "completed",
        "vaccineCode": {
          "coding": [
            {
              "system": "http://snomed.info/sct",
              "code": "24381000087107",
              "display": "[Inf] AFLURIA TETRA"
            }
          ]
        },
        "patient": {
          "reference": "urn:uuid:c13ab710-ea8f-4bfb-b6bb-83666ee6e201"
        },
        "occurrenceDateTime": "2024-04-27T00:00:00",
        "primarySource": true,
        "site": {
          "coding": [
            {
              "system": "http://terminology.hl7.org/CodeSystem/v2-0493",
              "code": "RA",
              "display": "Right arm"
            }
          ]
        },
        "route": {
          "coding": [
            {
              "system": "http://snomed.info/sct",
              "code": "78421000",
              "display": "Intramuscular: IM"
            }
          ]
        }
      }
    }
  ]
}