{
  "resourceType": "Bundle",
  "type": "document",
  "entry": [
    {
      "fullUrl": "urn:uuid:e280569c-8f2d-41ab-b24a-21a032a7de8c",
      "resource": {
        "resourceType": "Composition",
        "id": "e280569c-8f2d-41ab-b24a-21a032a7de8c",
        "status": "final",
        "type": {
          "coding": [
            {
              "system": "http://loinc.org",
              "code": "60591-5",
              "display": "Patient Summary"
            }
          ]
        },
        "subject": {
          "reference": "urn:uuid:64fb8959-944f-45a6-b908-da792f031d27"
        },
        "date": "2025-06-23T23:51:27.845262+00:00",
        "title": "PS-CA Patient Summary",
        "author": [
          {
            "reference": "urn:uuid:psca-author-org",
            "display": "Wellness Way Hospital"
          }
        ],
        "custodian": {
          "reference": "urn:uuid:psca-author-org",
          "display": "Wellness Way Hospital"
        },
        "section": [
          {
            "title": "Allergies",
            "code": {
              "coding": [
                {
                  "system": "http://loinc.org",
                  "code": "48765-2",
                  "display": "Allergies and adverse reactions"
                }
              ]
            },
            "entry": [
              {
                "reference": "urn:uuid:3eeaa0d9-fc4d-4e34-b80c-e4db96bad3b5"
              }
            ]
          },
          {
            "title": "Problems",
            "code": {
              "coding": [
                {
                  "system": "http://loinc.org",
                  "code": "11450-4",
                  "display": "Problem List"
                }
              ]
            },
            "entry": [
              {
                "reference": "urn:uuid:000328fc-30b7-4026-b729-5d49187512e9"
              },
              {
                "reference": "urn:uuid:21dc13ef-d1ef-405d-a37c-6dd832c10b83"
              },
              {
                "reference": "urn:uuid:729526a0-85ae-4926-8a50-e6a777c69baa"
              }
            ]
          },
          {
            "title": "Medications",
            "code": {
              "coding": [
                {
                  "system": "http://loinc.org",
                  "code": "10160-0",
                  "display": "History of Medication Use"
                }
              ]
            },
            "entry": [
              {
                "reference": "urn:uuid:20a9ea80-1895-4497-940e-b6e426383f54"
              }
            ]
          },
          {
            "title": "Immunizations",
            "code": {
              "coding": [
                {
                  "system": "http://loinc.org",
                  "code": "11369-6",
                  "display": "History of immunizations"
                }
              ]
            },
            "entry": [
              {
                "reference": "urn:uuid:fbee61fe-636b-405e-ab2a-965640af7271"
              },
              {
                "reference": "urn:uuid:64703dd1-cd71-4f0c-8f82-26b8e5dffe29"
              },
              {
                "reference": "urn:uuid:079a84d9-261c-4394-a804-bb202a47a9ef"
              },
              {
                "reference": "urn:uuid:7b5f6966-a899-443d-bbea-206c7e614dfb"
              },
              {
                "reference": "urn:uuid:1cdb8f88-a31d-4ea6-a461-a527fb7246a2"
              },
              {
                "reference": "urn:uuid:7a92e8fb-ad6b-4c0d-9b25-c52579587327"
              },
              {
                "reference": "urn:uuid:a0821b66-cd5b-448c-98c1-8cb43eb5785a"
              }
            ]
          }
        ]
      }
    },
    {
      "fullUrl": "urn:uuid:64fb8959-944f-45a6-b908-da792f031d27",
      "resource": {
        "resourceType": "Patient",
        "id": "64fb8959-944f-45a6-b908-da792f031d27",
        "identifier": [
          {
            "system": "http://example.org/healthcardnumber",
            "value": "999 873 847"
          }
        ],
        "name": [
          {
            "family": "Dog",
            "given": [
              "Snoopy"
            ]
          }
        ],
        "gender": "male",
        "birthDate": "2014-06-12",
        "telecom": [
          {
            "system": "phone",
            "value": "+1 (115) 305-1522",
            "use": "home"
          },
          {
            "system": "email",
            "value": "Snoopy.Dog@outlook.com",
            "use": "home"
          }
        ],
        "address": [
          {
            "line": [
              "957 Ramos Forest Suite 214"
            ],
            "city": "Matthewview",
            "state": "Alberta",
            "postalCode": "M6T 3B2",
            "country": "Canada"
          }
        ],
        "photo": [
          {
            "contentType": "image/jpeg",
            "data": ""
          }
        ]
      }
    },
    {
      "fullUrl": "urn:uuid:psca-author-org",
      "resource": {
        "resourceType": "Organization",
        "id": "psca-author-org",
        "name": "Wellness Way Hospital"
      }
    },
    {
      "fullUrl": "urn:uuid:000328fc-30b7-4026-b729-5d49187512e9",
      "resource": {
        "resourceType": "Condition",
        "id": "000328fc-30b7-4026-b729-5d49187512e9",
        "subject": {
          "reference": "urn:uuid:64fb8959-944f-45a6-b908-da792f031d27"
        },
        "code": {
          "coding": [
            {
              "system": "http://snomed.info/sct",
              "code": "2023001",
              "display": "Malignant neoplasm of prostate (disorder)"
            }
          ]
        }
      }
    },
    {
      "fullUrl": "urn:uuid:21dc13ef-d1ef-405d-a37c-6dd832c10b83",
      "resource": {
        "resourceType": "Condition",
        "id": "21dc13ef-d1ef-405d-a37c-6dd832c10b83",
        "subject": {
          "reference": "urn:uuid:64fb8959-944f-45a6-b908-da792f031d27"
        },
        "code": {
          "coding": [
            {
              "system": "http://snomed.info/sct",
              "code": "239873007",
              "display": "Gastroesophageal reflux disease (disorder)"
            }
          ]
        }
      }
    },
    {
      "fullUrl": "urn:uuid:729526a0-85ae-4926-8a50-e6a777c69baa",
      "resource": {
        "resourceType": "Condition",
        "id": "729526a0-85ae-4926-8a50-e6a777c69baa",
        "subject": {
          "reference": "urn:uuid:64fb8959-944f-45a6-b908-da792f031d27"
        },
        "code": {
          "coding": [
            {
              "system": "http://snomed.info/sct",
              "code": "44054006",
              "display": "Diabetes mellitus (disorder)"
            }
          ]
        }
      }
    },
    {
      "fullUrl": "urn:uuid:20a9ea80-1895-4497-940e-b6e426383f54",
      "resource": {
        "resourceType": "MedicationStatement",
        "id": "20a9ea80-1895-4497-940e-b6e426383f54",
        "subject": {
          "reference": "urn:uuid:64fb8959-944f-45a6-b908-da792f031d27"
        },
        "medicationCodeableConcept": {
          "coding": [
            {
              "system": "http://terminology.hl7.org/CodeSystem/hc-CCDD",
              "code": "2297795",
              "display": "APO-GLICLAZIDE MR (gliclazide 30 mg prolonged-release oral tablet) APOTEX INC"
            }
          ]
        },
        "status": "active"
      }
    },
    {
      "fullUrl": "urn:uuid:3eeaa0d9-fc4d-4e34-b80c-e4db96bad3b5",
      "resource": {
        "resourceType": "AllergyIntolerance",
        "id": "3eeaa0d9-fc4d-4e34-b80c-e4db96bad3b5",
        "clinicalStatus": {
          "coding": [
            {
              "system": "http://terminology.hl7.org/CodeSystem/allergyintolerance-clinical",
              "code": "active"
            }
          ]
        },
        "verificationStatus": {
          "coding": [
            {
              "system": "http://terminology.hl7.org/CodeSystem/allergyintolerance-verification",
              "code": "confirmed"
            }
          ]
        },
        "criticality": "high",
        "code": {
          "coding": [
            {
              "system": "http://snomed.info/sct",
              "code": 233678006,
              "display": "Egg protein"
            }
          ]
        },
        "reaction": [
          {
            "manifestation": [
              {
                "coding": [
                  {
                    "system": "http://snomed.info/sct",
                    "code": 271759003,
                    "display": "Wheezing"
                  }
                ]
              }
            ],
            "severity": "moderate"
          }
        ],
        "patient": {
          "reference": "urn:uuid:64fb8959-944f-45a6-b908-da792f031d27"
        }
      }
    },
    {
      "fullUrl": "urn:uuid:fbee61fe-636b-405e-ab2a-965640af7271",
      "resource": {
        "resourceType": "Immunization",
        "id": "fbee61fe-636b-405e-ab2a-965640af7271",
        "status": "completed",
        "vaccineCode": {
          "coding": [
            {
              "system": "http://snomed.info/sct",
              "code": "28721000087103",
              "display": "[DTaP] TRIPACEL"
            }
          ]
        },
        "patient": {
          "reference": "urn:uuid:64fb8959-944f-45a6-b908-da792f031d27"
        },
        "occurrenceDateTime": "2024-08-13",
        "primarySource": true,
        "site": {
          "coding": [
            {
              "system": "http://terminology.hl7.org/CodeSystem/v2-0493",
              "code": "RA",
              "display": "Right arm"
            }
          ]
        },
        "route": {
          "coding": [
            {
              "system": "http://snomed.info/sct",
              "code": 78421000,
              "display": "Intramuscular: IM"
            }
          ]
        }
      }
    },
    {
      "fullUrl": "urn:uuid:64703dd1-cd71-4f0c-8f82-26b8e5dffe29",
      "resource": {
        "resourceType": "Immunization",
        "id": "64703dd1-cd71-4f0c-8f82-26b8e5dffe29",
        "status": "completed",
        "vaccineCode": {
          "coding": [
            {
              "system": "http://snomed.info/sct",
              "code": "28581000087106",
              "display": "[COVID-19] COMIRNATY (original strain) 30 mcg/0.3 mL"
            }
          ]
        },
        "patient": {
          "reference": "urn:uuid:64fb8959-944f-45a6-b908-da792f031d27"
        },
        "occurrenceDateTime": "2023-01-11",
        "primarySource": true,
        "site": {
          "coding": [
            {
              "system": "http://terminology.hl7.org/CodeSystem/v2-0493",
              "code": "RA",
              "display": "Right arm"
            }
          ]
        },
        "route": {
          "coding": [
            {
              "system": "http://snomed.info/sct",
              "code": 78421000,
              "display": "Intramuscular: IM"
            }
          ]
        }
      }
    },
    {
      "fullUrl": "urn:uuid:079a84d9-261c-4394-a804-bb202a47a9ef",
      "resource": {
        "resourceType": "Immunization",
        "id": "079a84d9-261c-4394-a804-bb202a47a9ef",
        "status": "completed",
        "vaccineCode": {
          "coding": [
            {
              "system": "http://snomed.info/sct",
              "code": "37651000087101",
              "display": "[COVID-19] SPIKEVAX Bivalent (Original / Omicron BA.4/BA.5) 0.10 mg/mL"
            }
          ]
        },
        "patient": {
          "reference": "urn:uuid:64fb8959-944f-45a6-b908-da792f031d27"
        },
        "occurrenceDateTime": "2023-06-05",
        "primarySource": true,
        "site": {
          "coding": [
            {
              "system": "http://terminology.hl7.org/CodeSystem/v2-0493",
              "code": "RA",
              "display": "Right arm"
            }
          ]
        },
        "route": {
          "coding": [
            {
              "system": "http://snomed.info/sct",
              "code": 78421000,
              "display": "Intramuscular: IM"
            }
          ]
        }
      }
    },
    {
      "fullUrl": "urn:uuid:7b5f6966-a899-443d-bbea-206c7e614dfb",
      "resource": {
        "resourceType": "Immunization",
        "id": "7b5f6966-a899-443d-bbea-206c7e614dfb",
        "status": "completed",
        "vaccineCode": {
          "coding": [
            {
              "system": "http://snomed.info/sct",
              "code": "51471000087104",
              "display": "[COVID-19] COMIRNATY Omicron XBB.1.5 30 mcg/0.3 mL"
            }
          ]
        },
        "patient": {
          "reference": "urn:uuid:64fb8959-944f-45a6-b908-da792f031d27"
        },
        "occurrenceDateTime": "2021-02-04",
        "primarySource": true,
        "site": {
          "coding": [
            {
              "system": "http://terminology.hl7.org/CodeSystem/v2-0493",
              "code": "LA",
              "display": "Left arm"
            }
          ]
        },
        "route": {
          "coding": [
            {
              "system": "http://snomed.info/sct",
              "code": 78421000,
              "display": "Intramuscular: IM"
            }
          ]
        }
      }
    },
    {
      "fullUrl": "urn:uuid:1cdb8f88-a31d-4ea6-a461-a527fb7246a2",
      "resource": {
        "resourceType": "Immunization",
        "id": "1cdb8f88-a31d-4ea6-a461-a527fb7246a2",
        "status": "completed",
        "vaccineCode": {
          "coding": [
            {
              "system": "http://snomed.info/sct",
              "code": "24381000087107",
              "display": "[Inf] AFLURIA TETRA"
            }
          ]
        },
        "patient": {
          "reference": "urn:uuid:64fb8959-944f-45a6-b908-da792f031d27"
        },
        "occurrenceDateTime": "2021-12-05",
        "primarySource": true,
        "site": {
          "coding": [
            {
              "system": "http://terminology.hl7.org/CodeSystem/v2-0493",
              "code": "LA",
              "display": "Left arm"
            }
          ]
        },
        "route": {
          "coding": [
            {
              "system": "http://snomed.info/sct",
              "code": 78421000,
              "display": "Intramuscular: IM"
            }
          ]
        }
      }
    },
    {
      "fullUrl": "urn:uuid:7a92e8fb-ad6b-4c0d-9b25-c52579587327",
      "resource": {
        "resourceType": "Immunization",
        "id": "7a92e8fb-ad6b-4c0d-9b25-c52579587327",
        "status": "completed",
        "vaccineCode": {
          "coding": [
            {
              "system": "http://snomed.info/sct",
              "code": "31541000087105",
              "display": "[Var] VARILRIX"
            }
          ]
        },
        "patient": {
          "reference": "urn:uuid:64fb8959-944f-45a6-b908-da792f031d27"
        },
        "occurrenceDateTime": "2024-11-18",
        "primarySource": true,
        "site": {
          "coding": [
            {
              "system": "http://terminology.hl7.org/CodeSystem/v2-0493",
              "code": "LA",
              "display": "Left arm"
            }
          ]
        },
        "route": {
          "coding": [
            {
              "system": "http://snomed.info/sct",
              "code": 78421000,
              "display": "Intramuscular: IM"
            }
          ]
        }
      }
    },
    {
      "fullUrl": "urn:uuid:a0821b66-cd5b-448c-98c1-8cb43eb5785a",
      "resource": {
        "resourceType": "Immunization",
        "id": "a0821b66-cd5b-448c-98c1-8cb43eb5785a",
        "status": "completed",
        "vaccineCode": {
          "coding": [
            {
              "system": "http://snomed.info/sct",
              "code": "28581000087106",
              "display": "[COVID-19] COMIRNATY (original strain) 30 mcg/0.3 mL"
            }
          ]
        },
        "patient": {
          "reference": "urn:uuid:64fb8959-944f-45a6-b908-da792f031d27"
        },
        "occurrenceDateTime": "2020-10-05",
        "primarySource": true,
        "site": {
          "coding": [
            {
              "system": "http://terminology.hl7.org/CodeSystem/v2-0493",
              "code": "RA",
              "display": "Right arm"
            }
          ]
        },
        "route": {
          "coding": [
            {
              "system": "http://snomed.info/sct",
              "code": 78421000,
              "display": "Intramuscular: IM"
            }
          ]
        }
      }
    }
  ]
}