{
  "resourceType": "Bundle",
  "type": "document",
  "entry": [
    {
      "fullUrl": "urn:uuid:812847a8-aac1-4dfe-a8ec-c01ab652f2cf",
      "resource": {
        "resourceType": "Composition",
        "id": "812847a8-aac1-4dfe-a8ec-c01ab652f2cf",
        "status": "final",
        "type": {
          "coding": [
            {
              "system": "http://loinc.org",
              "code": "60591-5",
              "display": "Patient Summary"
            }
          ]
        },
        "subject": {
          "reference": "urn:uuid:61e19029-fd72-4195-85f2-0d986d78f3ac"
        },
        "date": "2025-06-23T23:51:27.141137+00:00",
        "title": "PS-CA Patient Summary",
        "author": [
          {
            "reference": "urn:uuid:psca-author-org",
            "display": "Wellness Way Hospital"
          }
        ],
        "custodian": {
          "reference": "urn:uuid:psca-author-org",
          "display": "Wellness Way Hospital"
        },
        "section": [
          {
            "title": "Allergies",
            "code": {
              "coding": [
                {
                  "system": "http://loinc.org",
                  "code": "48765-2",
                  "display": "Allergies and adverse reactions"
                }
              ]
            },
            "entry": [
              {
                "reference": "urn:uuid:ad7dc3d2-9c40-42b9-a0e5-7584edb69e2c"
              },
              {
                "reference": "urn:uuid:bceda08d-ad31-4999-a828-8e3963aabe67"
              }
            ]
          },
          {
            "title": "Problems",
            "code": {
              "coding": [
                {
                  "system": "http://loinc.org",
                  "code": "11450-4",
                  "display": "Problem List"
                }
              ]
            },
            "entry": [
              {
                "reference": "urn:uuid:288e3aac-cb84-4c7a-9916-52942970799e"
              },
              {
                "reference": "urn:uuid:be8929d6-8b24-4c89-b5ae-4b523954eca2"
              }
            ]
          },
          {
            "title": "Medications",
            "code": {
              "coding": [
                {
                  "system": "http://loinc.org",
                  "code": "10160-0",
                  "display": "History of Medication Use"
                }
              ]
            },
            "entry": [
              {
                "reference": "urn:uuid:7a4eeea6-6096-4188-b22a-dfa0e3d59eda"
              },
              {
                "reference": "urn:uuid:18728f96-ca01-48bb-9e64-c96c0fc172f0"
              }
            ]
          },
          {
            "title": "Immunizations",
            "code": {
              "coding": [
                {
                  "system": "http://loinc.org",
                  "code": "11369-6",
                  "display": "History of immunizations"
                }
              ]
            },
            "entry": [
              {
                "reference": "urn:uuid:9c12ce10-321a-429d-8e23-09b28b69a1f6"
              },
              {
                "reference": "urn:uuid:5c1d4b90-61b4-41a8-b880-e0d18fd154cb"
              },
              {
                "reference": "urn:uuid:df40971a-c07e-4e95-b063-79b7ef8920c5"
              },
              {
                "reference": "urn:uuid:396f970f-d2e6-4a3a-9808-b8be23b25c96"
              },
              {
                "reference": "urn:uuid:ce3af7d1-92b5-4ec6-b17f-5552a29ff642"
              }
            ]
          }
        ]
      }
    },
    {
      "fullUrl": "urn:uuid:61e19029-fd72-4195-85f2-0d986d78f3ac",
      "resource": {
        "resourceType": "Patient",
        "id": "61e19029-fd72-4195-85f2-0d986d78f3ac",
        "identifier": [
          {
            "system": "http://example.org/healthcardnumber",
            "value": "999 878 645"
          }
        ],
        "name": [
          {
            "family": "Bunny",
            "given": [
              "Bugs"
            ]
          }
        ],
        "gender": "other",
        "birthDate": "1977-07-02",
        "telecom": [
          {
            "system": "phone",
            "value": "1 (346) 291-4865",
            "use": "home"
          },
          {
            "system": "email",
            "value": "Bugs.Bunny@outlook.com",
            "use": "home"
          }
        ],
        "address": [
          {
            "line": [
              "2160 Walker Viaduct"
            ],
            "city": "South Gregory",
            "state": "Newfoundland and Labrador",
            "postalCode": "P4S 9G7",
            "country": "Canada"
          }
        ],
        "photo": [
          {
            "contentType": "image/jpeg",
            "data": ""
          }
        ]
      }
    },
    {
      "fullUrl": "urn:uuid:psca-author-org",
      "resource": {
        "resourceType": "Organization",
        "id": "psca-author-org",
        "name": "Wellness Way Hospital"
      }
    },
    {
      "fullUrl": "urn:uuid:288e3aac-cb84-4c7a-9916-52942970799e",
      "resource": {
        "resourceType": "Condition",
        "id": "288e3aac-cb84-4c7a-9916-52942970799e",
        "subject": {
          "reference": "urn:uuid:61e19029-fd72-4195-85f2-0d986d78f3ac"
        },
        "code": {
          "coding": [
            {
              "system": "http://snomed.info/sct",
              "code": "13645005",
              "display": "Osteoarthritis (disorder)"
            }
          ]
        }
      }
    },
    {
      "fullUrl": "urn:uuid:be8929d6-8b24-4c89-b5ae-4b523954eca2",
      "resource": {
        "resourceType": "Condition",
        "id": "be8929d6-8b24-4c89-b5ae-4b523954eca2",
        "subject": {
          "reference": "urn:uuid:61e19029-fd72-4195-85f2-0d986d78f3ac"
        },
        "code": {
          "coding": [
            {
              "system": "http://snomed.info/sct",
              "code": "444814009",
              "display": "Viral upper respiratory tract infection (disorder)"
            }
          ]
        }
      }
    },
    {
      "fullUrl": "urn:uuid:7a4eeea6-6096-4188-b22a-dfa0e3d59eda",
      "resource": {
        "resourceType": "MedicationStatement",
        "id": "7a4eeea6-6096-4188-b22a-dfa0e3d59eda",
        "subject": {
          "reference": "urn:uuid:61e19029-fd72-4195-85f2-0d986d78f3ac"
        },
        "medicationCodeableConcept": {
          "coding": [
            {
              "system": "http://terminology.hl7.org/CodeSystem/hc-CCDD",
              "code": "9009619",
              "display": "furosemide 40 mg oral tablet"
            }
          ]
        },
        "status": "active"
      }
    },
    {
      "fullUrl": "urn:uuid:18728f96-ca01-48bb-9e64-c96c0fc172f0",
      "resource": {
        "resourceType": "MedicationStatement",
        "id": "18728f96-ca01-48bb-9e64-c96c0fc172f0",
        "subject": {
          "reference": "urn:uuid:61e19029-fd72-4195-85f2-0d986d78f3ac"
        },
        "medicationCodeableConcept": {
          "coding": [
            {
              "system": "http://terminology.hl7.org/CodeSystem/hc-CCDD",
              "code": "9000973",
              "display": "\talendronic acid (alendronate sodium) 70 mg oral tablet"
            }
          ]
        },
        "status": "active"
      }
    },
    {
      "fullUrl": "urn:uuid:ad7dc3d2-9c40-42b9-a0e5-7584edb69e2c",
      "resource": {
        "resourceType": "AllergyIntolerance",
        "id": "ad7dc3d2-9c40-42b9-a0e5-7584edb69e2c",
        "clinicalStatus": {
          "coding": [
            {
              "system": "http://terminology.hl7.org/CodeSystem/allergyintolerance-clinical",
              "code": "active"
            }
          ]
        },
        "verificationStatus": {
          "coding": [
            {
              "system": "http://terminology.hl7.org/CodeSystem/allergyintolerance-verification",
              "code": "confirmed"
            }
          ]
        },
        "criticality": "high",
        "code": {
          "coding": [
            {
              "system": "http://snomed.info/sct",
              "code": 282100009,
              "display": "Tree nuts"
            }
          ]
        },
        "reaction": [
          {
            "manifestation": [
              {
                "coding": [
                  {
                    "system": "http://snomed.info/sct",
                    "code": 422587007,
                    "display": "Vomiting"
                  }
                ]
              }
            ],
            "severity": "mild"
          }
        ],
        "patient": {
          "reference": "urn:uuid:61e19029-fd72-4195-85f2-0d986d78f3ac"
        }
      }
    },
    {
      "fullUrl": "urn:uuid:bceda08d-ad31-4999-a828-8e3963aabe67",
      "resource": {
        "resourceType": "AllergyIntolerance",
        "id": "bceda08d-ad31-4999-a828-8e3963aabe67",
        "clinicalStatus": {
          "coding": [
            {
              "system": "http://terminology.hl7.org/CodeSystem/allergyintolerance-clinical",
              "code": "active"
            }
          ]
        },
        "verificationStatus": {
          "coding": [
            {
              "system": "http://terminology.hl7.org/CodeSystem/allergyintolerance-verification",
              "code": "confirmed"
            }
          ]
        },
        "criticality": "high",
        "code": {
          "coding": [
            {
              "system": "http://snomed.info/sct",
              "code": 233678006,
              "display": "Egg protein"
            }
          ]
        },
        "reaction": [
          {
            "manifestation": [
              {
                "coding": [
                  {
                    "system": "http://snomed.info/sct",
                    "code": 271757001,
                    "display": "Anaphylaxis"
                  }
                ]
              }
            ],
            "severity": "mild"
          }
        ],
        "patient": {
          "reference": "urn:uuid:61e19029-fd72-4195-85f2-0d986d78f3ac"
        }
      }
    },
    {
      "fullUrl": "urn:uuid:9c12ce10-321a-429d-8e23-09b28b69a1f6",
      "resource": {
        "resourceType": "Immunization",
        "id": "9c12ce10-321a-429d-8e23-09b28b69a1f6",
        "status": "completed",
        "vaccineCode": {
          "coding": [
            {
              "system": "http://snomed.info/sct",
              "code": "24381000087107",
              "display": "[Inf] AFLURIA TETRA"
            }
          ]
        },
        "patient": {
          "reference": "urn:uuid:61e19029-fd72-4195-85f2-0d986d78f3ac"
        },
        "occurrenceDateTime": "2020-11-06",
        "primarySource": true,
        "site": {
          "coding": [
            {
              "system": "http://terminology.hl7.org/CodeSystem/v2-0493",
              "code": "RA",
              "display": "Right arm"
            }
          ]
        },
        "route": {
          "coding": [
            {
              "system": "http://snomed.info/sct",
              "code": 78421000,
              "display": "Intramuscular: IM"
            }
          ]
        }
      }
    },
    {
      "fullUrl": "urn:uuid:5c1d4b90-61b4-41a8-b880-e0d18fd154cb",
      "resource": {
        "resourceType": "Immunization",
        "id": "5c1d4b90-61b4-41a8-b880-e0d18fd154cb",
        "status": "completed",
        "vaccineCode": {
          "coding": [
            {
              "system": "http://snomed.info/sct",
              "code": "28721000087103",
              "display": "[DTaP] TRIPACEL"
            }
          ]
        },
        "patient": {
          "reference": "urn:uuid:61e19029-fd72-4195-85f2-0d986d78f3ac"
        },
        "occurrenceDateTime": "2023-12-22",
        "primarySource": true,
        "site": {
          "coding": [
            {
              "system": "http://terminology.hl7.org/CodeSystem/v2-0493",
              "code": "LA",
              "display": "Left arm"
            }
          ]
        },
        "route": {
          "coding": [
            {
              "system": "http://snomed.info/sct",
              "code": 78421000,
              "display": "Intramuscular: IM"
            }
          ]
        }
      }
    },
    {
      "fullUrl": "urn:uuid:df40971a-c07e-4e95-b063-79b7ef8920c5",
      "resource": {
        "resourceType": "Immunization",
        "id": "df40971a-c07e-4e95-b063-79b7ef8920c5",
        "status": "completed",
        "vaccineCode": {
          "coding": [
            {
              "system": "http://snomed.info/sct",
              "code": "51471000087104",
              "display": "[COVID-19] COMIRNATY Omicron XBB.1.5 30 mcg/0.3 mL"
            }
          ]
        },
        "patient": {
          "reference": "urn:uuid:61e19029-fd72-4195-85f2-0d986d78f3ac"
        },
        "occurrenceDateTime": "2021-08-10",
        "primarySource": true,
        "site": {
          "coding": [
            {
              "system": "http://terminology.hl7.org/CodeSystem/v2-0493",
              "code": "LA",
              "display": "Left arm"
            }
          ]
        },
        "route": {
          "coding": [
            {
              "system": "http://snomed.info/sct",
              "code": 78421000,
              "display": "Intramuscular: IM"
            }
          ]
        }
      }
    },
    {
      "fullUrl": "urn:uuid:396f970f-d2e6-4a3a-9808-b8be23b25c96",
      "resource": {
        "resourceType": "Immunization",
        "id": "396f970f-d2e6-4a3a-9808-b8be23b25c96",
        "status": "completed",
        "vaccineCode": {
          "coding": [
            {
              "system": "http://snomed.info/sct",
              "code": "37651000087101",
              "display": "[COVID-19] SPIKEVAX Bivalent (Original / Omicron BA.4/BA.5) 0.10 mg/mL"
            }
          ]
        },
        "patient": {
          "reference": "urn:uuid:61e19029-fd72-4195-85f2-0d986d78f3ac"
        },
        "occurrenceDateTime": "2024-01-12",
        "primarySource": true,
        "site": {
          "coding": [
            {
              "system": "http://terminology.hl7.org/CodeSystem/v2-0493",
              "code": "LA",
              "display": "Left arm"
            }
          ]
        },
        "route": {
          "coding": [
            {
              "system": "http://snomed.info/sct",
              "code": 78421000,
              "display": "Intramuscular: IM"
            }
          ]
        }
      }
    },
    {
      "fullUrl": "urn:uuid:ce3af7d1-92b5-4ec6-b17f-5552a29ff642",
      "resource": {
        "resourceType": "Immunization",
        "id": "ce3af7d1-92b5-4ec6-b17f-5552a29ff642",
        "status": "completed",
        "vaccineCode": {
          "coding": [
            {
              "system": "http://snomed.info/sct",
              "code": "28581000087106",
              "display": "[COVID-19] COMIRNATY (original strain) 30 mcg/0.3 mL"
            }
          ]
        },
        "patient": {
          "reference": "urn:uuid:61e19029-fd72-4195-85f2-0d986d78f3ac"
        },
        "occurrenceDateTime": "2024-09-16",
        "primarySource": true,
        "site": {
          "coding": [
            {
              "system": "http://terminology.hl7.org/CodeSystem/v2-0493",
              "code": "RA",
              "display": "Right arm"
            }
          ]
        },
        "route": {
          "coding": [
            {
              "system": "http://snomed.info/sct",
              "code": 78421000,
              "display": "Intramuscular: IM"
            }
          ]
        }
      }
    }
  ]
}