{
  "resourceType": "Bundle",
  "type": "document",
  "entry": [
    {
      "fullUrl": "urn:uuid:44dbaa76-9c01-4638-9157-08ee713f23b1",
      "resource": {
        "resourceType": "Composition",
        "id": "44dbaa76-9c01-4638-9157-08ee713f23b1",
        "status": "final",
        "type": {
          "coding": [
            {
              "system": "http://loinc.org",
              "code": "60591-5",
              "display": "Patient Summary"
            }
          ]
        },
        "subject": {
          "reference": "urn:uuid:59c035f0-e300-4f26-a941-24a1eeec5a13"
        },
        "date": "2025-06-23T23:51:27.344623+00:00",
        "title": "PS-CA Patient Summary",
        "author": [
          {
            "reference": "urn:uuid:psca-author-org",
            "display": "Wellness Way Hospital"
          }
        ],
        "custodian": {
          "reference": "urn:uuid:psca-author-org",
          "display": "Wellness Way Hospital"
        },
        "section": [
          {
            "title": "Allergies",
            "code": {
              "coding": [
                {
                  "system": "http://loinc.org",
                  "code": "48765-2",
                  "display": "Allergies and adverse reactions"
                }
              ]
            },
            "entry": [
              {
                "reference": "urn:uuid:531fa513-ebfb-4e80-857c-ba9efac7e085"
              },
              {
                "reference": "urn:uuid:6912e850-afb6-4d7e-9359-14a6c751f228"
              }
            ]
          },
          {
            "title": "Problems",
            "code": {
              "coding": [
                {
                  "system": "http://loinc.org",
                  "code": "11450-4",
                  "display": "Problem List"
                }
              ]
            },
            "entry": [
              {
                "reference": "urn:uuid:67682ac2-f364-49fd-89e3-689b152c2da8"
              },
              {
                "reference": "urn:uuid:00809f40-74a8-4c99-b3a1-4f4f53fe0fdb"
              }
            ]
          },
          {
            "title": "Medications",
            "code": {
              "coding": [
                {
                  "system": "http://loinc.org",
                  "code": "10160-0",
                  "display": "History of Medication Use"
                }
              ]
            },
            "entry": [
              {
                "reference": "urn:uuid:1638e31a-8c07-4f3f-9bf2-4f594c9715a3"
              },
              {
                "reference": "urn:uuid:224c056b-6daf-45dd-a3a2-e68276c9bb7b"
              }
            ]
          },
          {
            "title": "Immunizations",
            "code": {
              "coding": [
                {
                  "system": "http://loinc.org",
                  "code": "11369-6",
                  "display": "History of immunizations"
                }
              ]
            },
            "entry": [
              {
                "reference": "urn:uuid:f66a9fca-032d-432e-8f82-ea76f97f3746"
              },
              {
                "reference": "urn:uuid:54262a65-b9eb-4904-82aa-883c0c8a7f49"
              },
              {
                "reference": "urn:uuid:85226964-dfb9-4eee-b2d0-f3d5332b7619"
              },
              {
                "reference": "urn:uuid:8c35ced1-ed75-43bb-82be-0d96ce69dca3"
              },
              {
                "reference": "urn:uuid:3618655d-7374-44b8-9271-a397d7ea0e37"
              },
              {
                "reference": "urn:uuid:f3407620-cd96-4609-869e-15e61637d31c"
              },
              {
                "reference": "urn:uuid:8d697ad3-603e-44d7-9040-41c8adc236c0"
              },
              {
                "reference": "urn:uuid:0900c0f4-d3cd-48df-b4a8-f97bb3a2343e"
              },
              {
                "reference": "urn:uuid:84211670-3044-4af1-aeb2-64fab1ab2572"
              }
            ]
          }
        ]
      }
    },
    {
      "fullUrl": "urn:uuid:59c035f0-e300-4f26-a941-24a1eeec5a13",
      "resource": {
        "resourceType": "Patient",
        "id": "59c035f0-e300-4f26-a941-24a1eeec5a13",
        "identifier": [
          {
            "system": "http://example.org/healthcardnumber",
            "value": "999 884 228"
          }
        ],
        "name": [
          {
            "family": "Duck",
            "given": [
              "Daffy"
            ]
          }
        ],
        "gender": "unknown",
        "birthDate": "1960-06-17",
        "telecom": [
          {
            "system": "phone",
            "value": "(416) 850-5423 x573",
            "use": "home"
          },
          {
            "system": "email",
            "value": "Daffy.Duck@outlook.com",
            "use": "home"
          }
        ],
        "address": [
          {
            "line": [
              "4330 Raymond Harbors Apt. 458"
            ],
            "city": "Christinaside",
            "state": "British Columbia",
            "postalCode": "H7H 4C8",
            "country": "Canada"
          }
        ],
        "photo": [
          {
            "contentType": "image/jpeg",
            "data": ""
          }
        ]
      }
    },
    {
      "fullUrl": "urn:uuid:psca-author-org",
      "resource": {
        "resourceType": "Organization",
        "id": "psca-author-org",
        "name": "Wellness Way Hospital"
      }
    },
    {
      "fullUrl": "urn:uuid:67682ac2-f364-49fd-89e3-689b152c2da8",
      "resource": {
        "resourceType": "Condition",
        "id": "67682ac2-f364-49fd-89e3-689b152c2da8",
        "subject": {
          "reference": "urn:uuid:59c035f0-e300-4f26-a941-24a1eeec5a13"
        },
        "code": {
          "coding": [
            {
              "system": "http://snomed.info/sct",
              "code": "271327008",
              "display": "Migraine (disorder)"
            }
          ]
        }
      }
    },
    {
      "fullUrl": "urn:uuid:00809f40-74a8-4c99-b3a1-4f4f53fe0fdb",
      "resource": {
        "resourceType": "Condition",
        "id": "00809f40-74a8-4c99-b3a1-4f4f53fe0fdb",
        "subject": {
          "reference": "urn:uuid:59c035f0-e300-4f26-a941-24a1eeec5a13"
        },
        "code": {
          "coding": [
            {
              "system": "http://snomed.info/sct",
              "code": "16114001",
              "display": "Anemia (disorder)"
            }
          ]
        }
      }
    },
    {
      "fullUrl": "urn:uuid:1638e31a-8c07-4f3f-9bf2-4f594c9715a3",
      "resource": {
        "resourceType": "MedicationStatement",
        "id": "1638e31a-8c07-4f3f-9bf2-4f594c9715a3",
        "subject": {
          "reference": "urn:uuid:59c035f0-e300-4f26-a941-24a1eeec5a13"
        },
        "medicationCodeableConcept": {
          "coding": [
            {
              "system": "http://terminology.hl7.org/CodeSystem/hc-CCDD",
              "code": "9001234",
              "display": "\tduloxetine (duloxetine hydrochloride) 30 mg gastro-resistant capsule"
            }
          ]
        },
        "status": "active"
      }
    },
    {
      "fullUrl": "urn:uuid:224c056b-6daf-45dd-a3a2-e68276c9bb7b",
      "resource": {
        "resourceType": "MedicationStatement",
        "id": "224c056b-6daf-45dd-a3a2-e68276c9bb7b",
        "subject": {
          "reference": "urn:uuid:59c035f0-e300-4f26-a941-24a1eeec5a13"
        },
        "medicationCodeableConcept": {
          "coding": [
            {
              "system": "http://terminology.hl7.org/CodeSystem/hc-CCDD",
              "code": "9000834",
              "display": "citalopram (citalopram hydrobromide) 20 mg oral tablet"
            }
          ]
        },
        "status": "active"
      }
    },
    {
      "fullUrl": "urn:uuid:531fa513-ebfb-4e80-857c-ba9efac7e085",
      "resource": {
        "resourceType": "AllergyIntolerance",
        "id": "531fa513-ebfb-4e80-857c-ba9efac7e085",
        "clinicalStatus": {
          "coding": [
            {
              "system": "http://terminology.hl7.org/CodeSystem/allergyintolerance-clinical",
              "code": "active"
            }
          ]
        },
        "verificationStatus": {
          "coding": [
            {
              "system": "http://terminology.hl7.org/CodeSystem/allergyintolerance-verification",
              "code": "confirmed"
            }
          ]
        },
        "criticality": "unable-to-assess",
        "code": {
          "coding": [
            {
              "system": "http://snomed.info/sct",
              "code": 91930004,
              "display": "Latex"
            }
          ]
        },
        "reaction": [
          {
            "manifestation": [
              {
                "coding": [
                  {
                    "system": "http://snomed.info/sct",
                    "code": 247472004,
                    "display": "Hives"
                  }
                ]
              }
            ],
            "severity": "severe"
          }
        ],
        "patient": {
          "reference": "urn:uuid:59c035f0-e300-4f26-a941-24a1eeec5a13"
        }
      }
    },
    {
      "fullUrl": "urn:uuid:6912e850-afb6-4d7e-9359-14a6c751f228",
      "resource": {
        "resourceType": "AllergyIntolerance",
        "id": "6912e850-afb6-4d7e-9359-14a6c751f228",
        "clinicalStatus": {
          "coding": [
            {
              "system": "http://terminology.hl7.org/CodeSystem/allergyintolerance-clinical",
              "code": "active"
            }
          ]
        },
        "verificationStatus": {
          "coding": [
            {
              "system": "http://terminology.hl7.org/CodeSystem/allergyintolerance-verification",
              "code": "confirmed"
            }
          ]
        },
        "criticality": "high",
        "code": {
          "coding": [
            {
              "system": "http://snomed.info/sct",
              "code": 91932001,
              "display": "Aspirin"
            }
          ]
        },
        "reaction": [
          {
            "manifestation": [
              {
                "coding": [
                  {
                    "system": "http://snomed.info/sct",
                    "code": 271757001,
                    "display": "Anaphylaxis"
                  }
                ]
              }
            ],
            "severity": "mild"
          }
        ],
        "patient": {
          "reference": "urn:uuid:59c035f0-e300-4f26-a941-24a1eeec5a13"
        }
      }
    },
    {
      "fullUrl": "urn:uuid:f66a9fca-032d-432e-8f82-ea76f97f3746",
      "resource": {
        "resourceType": "Immunization",
        "id": "f66a9fca-032d-432e-8f82-ea76f97f3746",
        "status": "completed",
        "vaccineCode": {
          "coding": [
            {
              "system": "http://snomed.info/sct",
              "code": "7361000087100",
              "display": "[IPV] IMOVAX POLIO"
            }
          ]
        },
        "patient": {
          "reference": "urn:uuid:59c035f0-e300-4f26-a941-24a1eeec5a13"
        },
        "occurrenceDateTime": "2024-10-02",
        "primarySource": true,
        "site": {
          "coding": [
            {
              "system": "http://terminology.hl7.org/CodeSystem/v2-0493",
              "code": "RA",
              "display": "Right arm"
            }
          ]
        },
        "route": {
          "coding": [
            {
              "system": "http://snomed.info/sct",
              "code": 78421000,
              "display": "Intramuscular: IM"
            }
          ]
        }
      }
    },
    {
      "fullUrl": "urn:uuid:54262a65-b9eb-4904-82aa-883c0c8a7f49",
      "resource": {
        "resourceType": "Immunization",
        "id": "54262a65-b9eb-4904-82aa-883c0c8a7f49",
        "status": "completed",
        "vaccineCode": {
          "coding": [
            {
              "system": "http://snomed.info/sct",
              "code": "28581000087106",
              "display": "[COVID-19] COMIRNATY (original strain) 30 mcg/0.3 mL"
            }
          ]
        },
        "patient": {
          "reference": "urn:uuid:59c035f0-e300-4f26-a941-24a1eeec5a13"
        },
        "occurrenceDateTime": "2022-12-13",
        "primarySource": true,
        "site": {
          "coding": [
            {
              "system": "http://terminology.hl7.org/CodeSystem/v2-0493",
              "code": "LA",
              "display": "Left arm"
            }
          ]
        },
        "route": {
          "coding": [
            {
              "system": "http://snomed.info/sct",
              "code": 78421000,
              "display": "Intramuscular: IM"
            }
          ]
        }
      }
    },
    {
      "fullUrl": "urn:uuid:85226964-dfb9-4eee-b2d0-f3d5332b7619",
      "resource": {
        "resourceType": "Immunization",
        "id": "85226964-dfb9-4eee-b2d0-f3d5332b7619",
        "status": "completed",
        "vaccineCode": {
          "coding": [
            {
              "system": "http://snomed.info/sct",
              "code": "37651000087101",
              "display": "[COVID-19] SPIKEVAX Bivalent (Original / Omicron BA.4/BA.5) 0.10 mg/mL"
            }
          ]
        },
        "patient": {
          "reference": "urn:uuid:59c035f0-e300-4f26-a941-24a1eeec5a13"
        },
        "occurrenceDateTime": "2024-09-14",
        "primarySource": true,
        "site": {
          "coding": [
            {
              "system": "http://terminology.hl7.org/CodeSystem/v2-0493",
              "code": "RA",
              "display": "Right arm"
            }
          ]
        },
        "route": {
          "coding": [
            {
              "system": "http://snomed.info/sct",
              "code": 78421000,
              "display": "Intramuscular: IM"
            }
          ]
        }
      }
    },
    {
      "fullUrl": "urn:uuid:8c35ced1-ed75-43bb-82be-0d96ce69dca3",
      "resource": {
        "resourceType": "Immunization",
        "id": "8c35ced1-ed75-43bb-82be-0d96ce69dca3",
        "status": "completed",
        "vaccineCode": {
          "coding": [
            {
              "system": "http://snomed.info/sct",
              "code": "28581000087106",
              "display": "[COVID-19] COMIRNATY (original strain) 30 mcg/0.3 mL"
            }
          ]
        },
        "patient": {
          "reference": "urn:uuid:59c035f0-e300-4f26-a941-24a1eeec5a13"
        },
        "occurrenceDateTime": "2022-03-18",
        "primarySource": true,
        "site": {
          "coding": [
            {
              "system": "http://terminology.hl7.org/CodeSystem/v2-0493",
              "code": "RA",
              "display": "Right arm"
            }
          ]
        },
        "route": {
          "coding": [
            {
              "system": "http://snomed.info/sct",
              "code": 78421000,
              "display": "Intramuscular: IM"
            }
          ]
        }
      }
    },
    {
      "fullUrl": "urn:uuid:3618655d-7374-44b8-9271-a397d7ea0e37",
      "resource": {
        "resourceType": "Immunization",
        "id": "3618655d-7374-44b8-9271-a397d7ea0e37",
        "status": "completed",
        "vaccineCode": {
          "coding": [
            {
              "system": "http://snomed.info/sct",
              "code": "51471000087104",
              "display": "[COVID-19] COMIRNATY Omicron XBB.1.5 30 mcg/0.3 mL"
            }
          ]
        },
        "patient": {
          "reference": "urn:uuid:59c035f0-e300-4f26-a941-24a1eeec5a13"
        },
        "occurrenceDateTime": "2024-08-02",
        "primarySource": true,
        "site": {
          "coding": [
            {
              "system": "http://terminology.hl7.org/CodeSystem/v2-0493",
              "code": "RA",
              "display": "Right arm"
            }
          ]
        },
        "route": {
          "coding": [
            {
              "system": "http://snomed.info/sct",
              "code": 78421000,
              "display": "Intramuscular: IM"
            }
          ]
        }
      }
    },
    {
      "fullUrl": "urn:uuid:f3407620-cd96-4609-869e-15e61637d31c",
      "resource": {
        "resourceType": "Immunization",
        "id": "f3407620-cd96-4609-869e-15e61637d31c",
        "status": "completed",
        "vaccineCode": {
          "coding": [
            {
              "system": "http://snomed.info/sct",
              "code": "28721000087103",
              "display": "[DTaP] TRIPACEL"
            }
          ]
        },
        "patient": {
          "reference": "urn:uuid:59c035f0-e300-4f26-a941-24a1eeec5a13"
        },
        "occurrenceDateTime": "2024-11-05",
        "primarySource": true,
        "site": {
          "coding": [
            {
              "system": "http://terminology.hl7.org/CodeSystem/v2-0493",
              "code": "RA",
              "display": "Right arm"
            }
          ]
        },
        "route": {
          "coding": [
            {
              "system": "http://snomed.info/sct",
              "code": 78421000,
              "display": "Intramuscular: IM"
            }
          ]
        }
      }
    },
    {
      "fullUrl": "urn:uuid:8d697ad3-603e-44d7-9040-41c8adc236c0",
      "resource": {
        "resourceType": "Immunization",
        "id": "8d697ad3-603e-44d7-9040-41c8adc236c0",
        "status": "completed",
        "vaccineCode": {
          "coding": [
            {
              "system": "http://snomed.info/sct",
              "code": "28581000087106",
              "display": "[COVID-19] COMIRNATY (original strain) 30 mcg/0.3 mL"
            }
          ]
        },
        "patient": {
          "reference": "urn:uuid:59c035f0-e300-4f26-a941-24a1eeec5a13"
        },
        "occurrenceDateTime": "2020-08-30",
        "primarySource": true,
        "site": {
          "coding": [
            {
              "system": "http://terminology.hl7.org/CodeSystem/v2-0493",
              "code": "RA",
              "display": "Right arm"
            }
          ]
        },
        "route": {
          "coding": [
            {
              "system": "http://snomed.info/sct",
              "code": 78421000,
              "display": "Intramuscular: IM"
            }
          ]
        }
      }
    },
    {
      "fullUrl": "urn:uuid:0900c0f4-d3cd-48df-b4a8-f97bb3a2343e",
      "resource": {
        "resourceType": "Immunization",
        "id": "0900c0f4-d3cd-48df-b4a8-f97bb3a2343e",
        "status": "completed",
        "vaccineCode": {
          "coding": [
            {
              "system": "http://snomed.info/sct",
              "code": "31541000087105",
              "display": "[Var] VARILRIX"
            }
          ]
        },
        "patient": {
          "reference": "urn:uuid:59c035f0-e300-4f26-a941-24a1eeec5a13"
        },
        "occurrenceDateTime": "2023-10-08",
        "primarySource": true,
        "site": {
          "coding": [
            {
              "system": "http://terminology.hl7.org/CodeSystem/v2-0493",
              "code": "RA",
              "display": "Right arm"
            }
          ]
        },
        "route": {
          "coding": [
            {
              "system": "http://snomed.info/sct",
              "code": 78421000,
              "display": "Intramuscular: IM"
            }
          ]
        }
      }
    },
    {
      "fullUrl": "urn:uuid:84211670-3044-4af1-aeb2-64fab1ab2572",
      "resource": {
        "resourceType": "Immunization",
        "id": "84211670-3044-4af1-aeb2-64fab1ab2572",
        "status": "completed",
        "vaccineCode": {
          "coding": [
            {
              "system": "http://snomed.info/sct",
              "code": "51471000087104",
              "display": "[COVID-19] COMIRNATY Omicron XBB.1.5 30 mcg/0.3 mL"
            }
          ]
        },
        "patient": {
          "reference": "urn:uuid:59c035f0-e300-4f26-a941-24a1eeec5a13"
        },
        "occurrenceDateTime": "2021-08-09",
        "primarySource": true,
        "site": {
          "coding": [
            {
              "system": "http://terminology.hl7.org/CodeSystem/v2-0493",
              "code": "LA",
              "display": "Left arm"
            }
          ]
        },
        "route": {
          "coding": [
            {
              "system": "http://snomed.info/sct",
              "code": 78421000,
              "display": "Intramuscular: IM"
            }
          ]
        }
      }
    }
  ]
}