{
  "resourceType": "Bundle",
  "type": "document",
  "entry": [
    {
      "fullUrl": "urn:uuid:5bc6bd00-2d31-418a-96cb-21ff3a3c25bd",
      "resource": {
        "resourceType": "Composition",
        "id": "5bc6bd00-2d31-418a-96cb-21ff3a3c25bd",
        "status": "final",
        "type": {
          "coding": [
            {
              "system": "http://loinc.org",
              "code": "60591-5",
              "display": "Patient Summary"
            }
          ]
        },
        "subject": {
          "reference": "urn:uuid:ed237b88-e1ba-4b97-bf7f-ca1775a210f8"
        },
        "date": "2025-06-28T20:38:06.555659+00:00",
        "author": [
          {
            "reference": "urn:uuid:psca-author-org",
            "display": "Wellness Way Hospital"
          }
        ],
        "title": "PS-CA Patient Summary",
        "custodian": {
          "reference": "urn:uuid:psca-author-org",
          "display": "Wellness Way Hospital"
        },
        "section": [
          {
            "title": "Allergies",
            "code": {
              "coding": [
                {
                  "system": "http://loinc.org",
                  "code": "48765-2",
                  "display": "Allergies and adverse reactions"
                }
              ]
            },
            "entry": [
              {
                "reference": "urn:uuid:1d5f17a3-aec1-49f9-baad-666ffbf5c45e"
              },
              {
                "reference": "urn:uuid:a8052194-a45c-4d6f-9614-791f855944c9"
              }
            ]
          },
          {
            "title": "Problems",
            "code": {
              "coding": [
                {
                  "system": "http://loinc.org",
                  "code": "11450-4",
                  "display": "Problem List"
                }
              ]
            },
            "entry": [
              {
                "reference": "urn:uuid:8c9544bb-fbe5-4408-a16b-d66bd202a1e8"
              },
              {
                "reference": "urn:uuid:12424c8c-6dd3-49cc-9cbe-be1e8690c034"
              },
              {
                "reference": "urn:uuid:d1c9aece-f9fc-407f-abf9-0bcf846db4bf"
              }
            ]
          },
          {
            "title": "Medications",
            "code": {
              "coding": [
                {
                  "system": "http://loinc.org",
                  "code": "10160-0",
                  "display": "History of Medication Use"
                }
              ]
            },
            "entry": [
              {
                "reference": "urn:uuid:9c218a4e-52c3-48cb-b122-b4f23526835f"
              },
              {
                "reference": "urn:uuid:b1a96dd2-953b-4586-956e-73dcd11e6eb4"
              },
              {
                "reference": "urn:uuid:9a939d87-8237-4a5f-846e-07a84806f7f9"
              }
            ]
          },
          {
            "title": "Immunizations",
            "code": {
              "coding": [
                {
                  "system": "http://loinc.org",
                  "code": "11369-6",
                  "display": "History of immunizations"
                }
              ]
            },
            "entry": [
              {
                "reference": "urn:uuid:3491f3b2-0046-423d-9199-7ffb8178c545"
              },
              {
                "reference": "urn:uuid:94fd9ef0-6311-42c5-80f0-b6cd2c75c44d"
              },
              {
                "reference": "urn:uuid:01b7bd82-c717-4f31-a2f3-665ab3d7c0b2"
              },
              {
                "reference": "urn:uuid:a8dc4a5b-8a94-4328-aba7-6f2fbfba6fa6"
              },
              {
                "reference": "urn:uuid:2d7f274b-c11b-4fd2-977f-d4bcbdb6ec5f"
              },
              {
                "reference": "urn:uuid:dba20075-2e1d-406d-ae2b-a4eecd4c1691"
              },
              {
                "reference": "urn:uuid:b81fbaa1-3386-4178-bab5-2ab3387d44ea"
              },
              {
                "reference": "urn:uuid:295f957a-5e50-49ff-8a8e-a91b3c6f2589"
              },
              {
                "reference": "urn:uuid:b5bd89ee-b6dd-48fb-a732-7294f5034cef"
              },
              {
                "reference": "urn:uuid:1418a60e-29b0-40dc-ac24-2d43256d2b76"
              }
            ]
          }
        ]
      }
    },
    {
      "fullUrl": "urn:uuid:ed237b88-e1ba-4b97-bf7f-ca1775a210f8",
      "resource": {
        "resourceType": "Patient",
        "id": "ed237b88-e1ba-4b97-bf7f-ca1775a210f8",
        "identifier": [
          {
            "system": "http://example.org/healthcardnumber",
            "value": "999 806 305"
          }
        ],
        "name": [
          {
            "family": "Bird",
            "given": [
              "Woodstock"
            ]
          }
        ],
        "telecom": [
          {
            "system": "phone",
            "value": "1-472-779-0104",
            "use": "home"
          },
          {
            "system": "email",
            "value": "Woodstock.Bird@outlook.com",
            "use": "home"
          }
        ],
        "gender": "male",
        "birthDate": "2022-02-21",
        "address": [
          {
            "line": [
              "34332 Brandon Mountains Apt. 769"
            ],
            "city": "New Stacyland",
            "state": "Saskatchewan",
            "postalCode": "N4S 3H9",
            "country": "Canada"
          }
        ],
        "photo": [
          {
            "contentType": "image/jpeg",
            "data": ""
          }
        ]
      }
    },
    {
      "fullUrl": "urn:uuid:psca-author-org",
      "resource": {
        "resourceType": "Organization",
        "id": "psca-author-org",
        "name": "Wellness Way Hospital"
      }
    },
    {
      "fullUrl": "urn:uuid:1d5f17a3-aec1-49f9-baad-666ffbf5c45e",
      "resource": {
        "resourceType": "AllergyIntolerance",
        "id": "1d5f17a3-aec1-49f9-baad-666ffbf5c45e",
        "clinicalStatus": {
          "coding": [
            {
              "system": "http://terminology.hl7.org/CodeSystem/allergyintolerance-clinical",
              "code": "active"
            }
          ]
        },
        "verificationStatus": {
          "coding": [
            {
              "system": "http://terminology.hl7.org/CodeSystem/allergyintolerance-verification",
              "code": "confirmed"
            }
          ]
        },
        "criticality": "unable-to-assess",
        "code": {
          "coding": [
            {
              "system": "http://snomed.info/sct",
              "code": "282100009",
              "display": "Tree nuts"
            }
          ]
        },
        "patient": {
          "reference": "urn:uuid:ed237b88-e1ba-4b97-bf7f-ca1775a210f8"
        },
        "reaction": [
          {
            "manifestation": [
              {
                "coding": [
                  {
                    "system": "http://snomed.info/sct",
                    "code": "422400008",
                    "display": "Rash"
                  }
                ]
              }
            ],
            "severity": "severe"
          }
        ]
      }
    },
    {
      "fullUrl": "urn:uuid:a8052194-a45c-4d6f-9614-791f855944c9",
      "resource": {
        "resourceType": "AllergyIntolerance",
        "id": "a8052194-a45c-4d6f-9614-791f855944c9",
        "clinicalStatus": {
          "coding": [
            {
              "system": "http://terminology.hl7.org/CodeSystem/allergyintolerance-clinical",
              "code": "active"
            }
          ]
        },
        "verificationStatus": {
          "coding": [
            {
              "system": "http://terminology.hl7.org/CodeSystem/allergyintolerance-verification",
              "code": "confirmed"
            }
          ]
        },
        "criticality": "unable-to-assess",
        "code": {
          "coding": [
            {
              "system": "http://snomed.info/sct",
              "code": "91937009",
              "display": "Ibuprofen"
            }
          ]
        },
        "patient": {
          "reference": "urn:uuid:ed237b88-e1ba-4b97-bf7f-ca1775a210f8"
        },
        "reaction": [
          {
            "manifestation": [
              {
                "coding": [
                  {
                    "system": "http://snomed.info/sct",
                    "code": "247472004",
                    "display": "Hives"
                  }
                ]
              }
            ],
            "severity": "severe"
          }
        ]
      }
    },
    {
      "fullUrl": "urn:uuid:8c9544bb-fbe5-4408-a16b-d66bd202a1e8",
      "resource": {
        "resourceType": "Condition",
        "id": "8c9544bb-fbe5-4408-a16b-d66bd202a1e8",
        "code": {
          "coding": [
            {
              "system": "http://snomed.info/sct",
              "code": "73211009",
              "display": "Obesity (disorder)"
            }
          ]
        },
        "subject": {
          "reference": "urn:uuid:ed237b88-e1ba-4b97-bf7f-ca1775a210f8"
        }
      }
    },
    {
      "fullUrl": "urn:uuid:12424c8c-6dd3-49cc-9cbe-be1e8690c034",
      "resource": {
        "resourceType": "Condition",
        "id": "12424c8c-6dd3-49cc-9cbe-be1e8690c034",
        "code": {
          "coding": [
            {
              "system": "http://snomed.info/sct",
              "code": "422504002",
              "display": "Ischemic heart disease (disorder)"
            }
          ]
        },
        "subject": {
          "reference": "urn:uuid:ed237b88-e1ba-4b97-bf7f-ca1775a210f8"
        }
      }
    },
    {
      "fullUrl": "urn:uuid:d1c9aece-f9fc-407f-abf9-0bcf846db4bf",
      "resource": {
        "resourceType": "Condition",
        "id": "d1c9aece-f9fc-407f-abf9-0bcf846db4bf",
        "code": {
          "coding": [
            {
              "system": "http://snomed.info/sct",
              "code": "13645005",
              "display": "Osteoarthritis (disorder)"
            }
          ]
        },
        "subject": {
          "reference": "urn:uuid:ed237b88-e1ba-4b97-bf7f-ca1775a210f8"
        }
      }
    },
    {
      "fullUrl": "urn:uuid:9c218a4e-52c3-48cb-b122-b4f23526835f",
      "resource": {
        "resourceType": "MedicationStatement",
        "id": "9c218a4e-52c3-48cb-b122-b4f23526835f",
        "status": "active",
        "medicationCodeableConcept": {
          "coding": [
            {
              "system": "http://terminology.hl7.org/CodeSystem/hc-CCDD",
              "code": "9000973",
              "display": "\talendronic acid (alendronate sodium) 70 mg oral tablet"
            }
          ]
        },
        "subject": {
          "reference": "urn:uuid:ed237b88-e1ba-4b97-bf7f-ca1775a210f8"
        }
      }
    },
    {
      "fullUrl": "urn:uuid:b1a96dd2-953b-4586-956e-73dcd11e6eb4",
      "resource": {
        "resourceType": "MedicationStatement",
        "id": "b1a96dd2-953b-4586-956e-73dcd11e6eb4",
        "status": "active",
        "medicationCodeableConcept": {
          "coding": [
            {
              "system": "http://terminology.hl7.org/CodeSystem/hc-CCDD",
              "code": "9000021",
              "display": "warfarin sodium 5 mg oral tablet"
            }
          ]
        },
        "subject": {
          "reference": "urn:uuid:ed237b88-e1ba-4b97-bf7f-ca1775a210f8"
        }
      }
    },
    {
      "fullUrl": "urn:uuid:9a939d87-8237-4a5f-846e-07a84806f7f9",
      "resource": {
        "resourceType": "MedicationStatement",
        "id": "9a939d87-8237-4a5f-846e-07a84806f7f9",
        "status": "active",
        "medicationCodeableConcept": {
          "coding": [
            {
              "system": "http://terminology.hl7.org/CodeSystem/hc-CCDD",
              "code": "9000398",
              "display": "amlodipine (amlodipine besylate) 10 mg oral tablet"
            }
          ]
        },
        "subject": {
          "reference": "urn:uuid:ed237b88-e1ba-4b97-bf7f-ca1775a210f8"
        }
      }
    },
    {
      "fullUrl": "urn:uuid:3491f3b2-0046-423d-9199-7ffb8178c545",
      "resource": {
        "resourceType": "Immunization",
        "id": "3491f3b2-0046-423d-9199-7ffb8178c545",
        "status": "completed",
        "vaccineCode": {
          "coding": [
            {
              "system": "http://snomed.info/sct",
              "code": "28721000087103",
              "display": "[DTaP] TRIPACEL"
            }
          ]
        },
        "patient": {
          "reference": "urn:uuid:ed237b88-e1ba-4b97-bf7f-ca1775a210f8"
        },
        "occurrenceDateTime": "2021-01-29T00:00:00",
        "primarySource": true,
        "site": {
          "coding": [
            {
              "system": "http://terminology.hl7.org/CodeSystem/v2-0493",
              "code": "RA",
              "display": "Right arm"
            }
          ]
        },
        "route": {
          "coding": [
            {
              "system": "http://snomed.info/sct",
              "code": "78421000",
              "display": "Intramuscular: IM"
            }
          ]
        }
      }
    },
    {
      "fullUrl": "urn:uuid:94fd9ef0-6311-42c5-80f0-b6cd2c75c44d",
      "resource": {
        "resourceType": "Immunization",
        "id": "94fd9ef0-6311-42c5-80f0-b6cd2c75c44d",
        "status": "completed",
        "vaccineCode": {
          "coding": [
            {
              "system": "http://snomed.info/sct",
              "code": "31541000087105",
              "display": "[Var] VARILRIX"
            }
          ]
        },
        "patient": {
          "reference": "urn:uuid:ed237b88-e1ba-4b97-bf7f-ca1775a210f8"
        },
        "occurrenceDateTime": "2024-12-04T00:00:00",
        "primarySource": true,
        "site": {
          "coding": [
            {
              "system": "http://terminology.hl7.org/CodeSystem/v2-0493",
              "code": "RA",
              "display": "Right arm"
            }
          ]
        },
        "route": {
          "coding": [
            {
              "system": "http://snomed.info/sct",
              "code": "78421000",
              "display": "Intramuscular: IM"
            }
          ]
        }
      }
    },
    {
      "fullUrl": "urn:uuid:01b7bd82-c717-4f31-a2f3-665ab3d7c0b2",
      "resource": {
        "resourceType": "Immunization",
        "id": "01b7bd82-c717-4f31-a2f3-665ab3d7c0b2",
        "status": "completed",
        "vaccineCode": {
          "coding": [
            {
              "system": "http://snomed.info/sct",
              "code": "24381000087107",
              "display": "[Inf] AFLURIA TETRA"
            }
          ]
        },
        "patient": {
          "reference": "urn:uuid:ed237b88-e1ba-4b97-bf7f-ca1775a210f8"
        },
        "occurrenceDateTime": "2022-04-21T00:00:00",
        "primarySource": true,
        "site": {
          "coding": [
            {
              "system": "http://terminology.hl7.org/CodeSystem/v2-0493",
              "code": "RA",
              "display": "Right arm"
            }
          ]
        },
        "route": {
          "coding": [
            {
              "system": "http://snomed.info/sct",
              "code": "78421000",
              "display": "Intramuscular: IM"
            }
          ]
        }
      }
    },
    {
      "fullUrl": "urn:uuid:a8dc4a5b-8a94-4328-aba7-6f2fbfba6fa6",
      "resource": {
        "resourceType": "Immunization",
        "id": "a8dc4a5b-8a94-4328-aba7-6f2fbfba6fa6",
        "status": "completed",
        "vaccineCode": {
          "coding": [
            {
              "system": "http://snomed.info/sct",
              "code": "37651000087101",
              "display": "[COVID-19] SPIKEVAX Bivalent (Original / Omicron BA.4/BA.5) 0.10 mg/mL"
            }
          ]
        },
        "patient": {
          "reference": "urn:uuid:ed237b88-e1ba-4b97-bf7f-ca1775a210f8"
        },
        "occurrenceDateTime": "2020-10-16T00:00:00",
        "primarySource": true,
        "site": {
          "coding": [
            {
              "system": "http://terminology.hl7.org/CodeSystem/v2-0493",
              "code": "LA",
              "display": "Left arm"
            }
          ]
        },
        "route": {
          "coding": [
            {
              "system": "http://snomed.info/sct",
              "code": "78421000",
              "display": "Intramuscular: IM"
            }
          ]
        }
      }
    },
    {
      "fullUrl": "urn:uuid:2d7f274b-c11b-4fd2-977f-d4bcbdb6ec5f",
      "resource": {
        "resourceType": "Immunization",
        "id": "2d7f274b-c11b-4fd2-977f-d4bcbdb6ec5f",
        "status": "completed",
        "vaccineCode": {
          "coding": [
            {
              "system": "http://snomed.info/sct",
              "code": "28581000087106",
              "display": "[COVID-19] COMIRNATY (original strain) 30 mcg/0.3 mL"
            }
          ]
        },
        "patient": {
          "reference": "urn:uuid:ed237b88-e1ba-4b97-bf7f-ca1775a210f8"
        },
        "occurrenceDateTime": "2021-12-05T00:00:00",
        "primarySource": true,
        "site": {
          "coding": [
            {
              "system": "http://terminology.hl7.org/CodeSystem/v2-0493",
              "code": "RA",
              "display": "Right arm"
            }
          ]
        },
        "route": {
          "coding": [
            {
              "system": "http://snomed.info/sct",
              "code": "78421000",
              "display": "Intramuscular: IM"
            }
          ]
        }
      }
    },
    {
      "fullUrl": "urn:uuid:dba20075-2e1d-406d-ae2b-a4eecd4c1691",
      "resource": {
        "resourceType": "Immunization",
        "id": "dba20075-2e1d-406d-ae2b-a4eecd4c1691",
        "status": "completed",
        "vaccineCode": {
          "coding": [
            {
              "system": "http://snomed.info/sct",
              "code": "7161000087102",
              "display": "[MMR] M-M-R II"
            }
          ]
        },
        "patient": {
          "reference": "urn:uuid:ed237b88-e1ba-4b97-bf7f-ca1775a210f8"
        },
        "occurrenceDateTime": "2022-04-23T00:00:00",
        "primarySource": true,
        "site": {
          "coding": [
            {
              "system": "http://terminology.hl7.org/CodeSystem/v2-0493",
              "code": "RA",
              "display": "Right arm"
            }
          ]
        },
        "route": {
          "coding": [
            {
              "system": "http://snomed.info/sct",
              "code": "78421000",
              "display": "Intramuscular: IM"
            }
          ]
        }
      }
    },
    {
      "fullUrl": "urn:uuid:b81fbaa1-3386-4178-bab5-2ab3387d44ea",
      "resource": {
        "resourceType": "Immunization",
        "id": "b81fbaa1-3386-4178-bab5-2ab3387d44ea",
        "status": "completed",
        "vaccineCode": {
          "coding": [
            {
              "system": "http://snomed.info/sct",
              "code": "24381000087107",
              "display": "[Inf] AFLURIA TETRA"
            }
          ]
        },
        "patient": {
          "reference": "urn:uuid:ed237b88-e1ba-4b97-bf7f-ca1775a210f8"
        },
        "occurrenceDateTime": "2021-04-16T00:00:00",
        "primarySource": true,
        "site": {
          "coding": [
            {
              "system": "http://terminology.hl7.org/CodeSystem/v2-0493",
              "code": "RA",
              "display": "Right arm"
            }
          ]
        },
        "route": {
          "coding": [
            {
              "system": "http://snomed.info/sct",
              "code": "78421000",
              "display": "Intramuscular: IM"
            }
          ]
        }
      }
    },
    {
      "fullUrl": "urn:uuid:295f957a-5e50-49ff-8a8e-a91b3c6f2589",
      "resource": {
        "resourceType": "Immunization",
        "id": "295f957a-5e50-49ff-8a8e-a91b3c6f2589",
        "status": "completed",
        "vaccineCode": {
          "coding": [
            {
              "system": "http://snomed.info/sct",
              "code": "7361000087100",
              "display": "[IPV] IMOVAX POLIO"
            }
          ]
        },
        "patient": {
          "reference": "urn:uuid:ed237b88-e1ba-4b97-bf7f-ca1775a210f8"
        },
        "occurrenceDateTime": "2021-12-22T00:00:00",
        "primarySource": true,
        "site": {
          "coding": [
            {
              "system": "http://terminology.hl7.org/CodeSystem/v2-0493",
              "code": "RA",
              "display": "Right arm"
            }
          ]
        },
        "route": {
          "coding": [
            {
              "system": "http://snomed.info/sct",
              "code": "78421000",
              "display": "Intramuscular: IM"
            }
          ]
        }
      }
    },
    {
      "fullUrl": "urn:uuid:b5bd89ee-b6dd-48fb-a732-7294f5034cef",
      "resource": {
        "resourceType": "Immunization",
        "id": "b5bd89ee-b6dd-48fb-a732-7294f5034cef",
        "status": "completed",
        "vaccineCode": {
          "coding": [
            {
              "system": "http://snomed.info/sct",
              "code": "24381000087107",
              "display": "[Inf] AFLURIA TETRA"
            }
          ]
        },
        "patient": {
          "reference": "urn:uuid:ed237b88-e1ba-4b97-bf7f-ca1775a210f8"
        },
        "occurrenceDateTime": "2020-06-23T00:00:00",
        "primarySource": true,
        "site": {
          "coding": [
            {
              "system": "http://terminology.hl7.org/CodeSystem/v2-0493",
              "code": "RA",
              "display": "Right arm"
            }
          ]
        },
        "route": {
          "coding": [
            {
              "system": "http://snomed.info/sct",
              "code": "78421000",
              "display": "Intramuscular: IM"
            }
          ]
        }
      }
    },
    {
      "fullUrl": "urn:uuid:1418a60e-29b0-40dc-ac24-2d43256d2b76",
      "resource": {
        "resourceType": "Immunization",
        "id": "1418a60e-29b0-40dc-ac24-2d43256d2b76",
        "status": "completed",
        "vaccineCode": {
          "coding": [
            {
              "system": "http://snomed.info/sct",
              "code": "28581000087106",
              "display": "[COVID-19] COMIRNATY (original strain) 30 mcg/0.3 mL"
            }
          ]
        },
        "patient": {
          "reference": "urn:uuid:ed237b88-e1ba-4b97-bf7f-ca1775a210f8"
        },
        "occurrenceDateTime": "2021-10-07T00:00:00",
        "primarySource": true,
        "site": {
          "coding": [
            {
              "system": "http://terminology.hl7.org/CodeSystem/v2-0493",
              "code": "LA",
              "display": "Left arm"
            }
          ]
        },
        "route": {
          "coding": [
            {
              "system": "http://snomed.info/sct",
              "code": "78421000",
              "display": "Intramuscular: IM"
            }
          ]
        }
      }
    }
  ]
}