{
  "resourceType": "Bundle",
  "type": "document",
  "entry": [
    {
      "fullUrl": "urn:uuid:49c8911a-e772-411c-88dd-dec9dbfc095c",
      "resource": {
        "resourceType": "Composition",
        "id": "49c8911a-e772-411c-88dd-dec9dbfc095c",
        "status": "final",
        "type": {
          "coding": [
            {
              "system": "http://loinc.org",
              "code": "60591-5",
              "display": "Patient summary Document"
            }
          ]
        },
        "subject": {
          "reference": "urn:uuid:1fceb451-a7d3-4444-a99b-6572f540cc7b"
        },
        "date": "2025-06-30T16:25:30.387714+00:00",
        "author": [
          {
            "reference": "urn:uuid:psca-author-org",
            "display": "Wellness Way Hospital"
          }
        ],
        "title": "PS-CA Patient Summary",
        "custodian": {
          "reference": "urn:uuid:psca-author-org",
          "display": "Wellness Way Hospital"
        },
        "section": [
          {
            "title": "Allergies",
            "code": {
              "coding": [
                {
                  "system": "http://loinc.org",
                  "code": "48765-2",
                  "display": "Allergies and adverse reactions Document"
                }
              ]
            },
            "entry": [
              {
                "reference": "urn:uuid:7391a822-69ab-4e1c-a98a-3f79d4852f22"
              }
            ]
          },
          {
            "title": "Medications",
            "code": {
              "coding": [
                {
                  "system": "http://loinc.org",
                  "code": "10160-0",
                  "display": "History of Medication use Narrative"
                }
              ]
            },
            "entry": [
              {
                "reference": "urn:uuid:09d82ae0-9479-472c-882d-9a2eec1d867e"
              }
            ]
          },
          {
            "title": "Immunizations",
            "code": {
              "coding": [
                {
                  "system": "http://loinc.org",
                  "code": "11369-6",
                  "display": "History of Immunization Narrative"
                }
              ]
            },
            "entry": [
              {
                "reference": "urn:uuid:596a9e73-2812-4312-98fb-41c35129d70b"
              },
              {
                "reference": "urn:uuid:7a8bb288-d939-4751-a016-74d04c790150"
              },
              {
                "reference": "urn:uuid:1d5bed60-73a7-4c43-b848-4040d19a6295"
              },
              {
                "reference": "urn:uuid:2e01b2ee-2338-4b06-a59f-a578d82afa9f"
              },
              {
                "reference": "urn:uuid:0511634f-19d1-44c7-9a9a-5a01766c21f4"
              },
              {
                "reference": "urn:uuid:9757405c-674c-4da0-99d5-8780eed14376"
              },
              {
                "reference": "urn:uuid:84de07eb-8fea-4069-a416-98510bf8d4ee"
              }
            ]
          }
        ]
      }
    },
    {
      "fullUrl": "urn:uuid:1fceb451-a7d3-4444-a99b-6572f540cc7b",
      "resource": {
        "resourceType": "Patient",
        "id": "1fceb451-a7d3-4444-a99b-6572f540cc7b",
        "identifier": [
          {
            "system": "http://example.org/healthcardnumber",
            "value": "999 873 847"
          }
        ],
        "name": [
          {
            "family": "Dog",
            "given": [
              "Snoopy"
            ]
          }
        ],
        "telecom": [
          {
            "system": "phone",
            "value": "+1 (115) 305-1522",
            "use": "home"
          },
          {
            "system": "email",
            "value": "Snoopy.Dog@outlook.com",
            "use": "home"
          }
        ],
        "gender": "male",
        "birthDate": "2014-06-12",
        "address": [
          {
            "line": [
              "957 Ramos Forest Suite 214"
            ],
            "city": "Matthewview",
            "state": "Alberta",
            "postalCode": "M6T 3B2",
            "country": "Canada"
          }
        ],
        "photo": [
          {
            "contentType": "image/jpeg",
            "data": ""
          }
        ]
      }
    },
    {
      "fullUrl": "urn:uuid:psca-author-org",
      "resource": {
        "resourceType": "Organization",
        "id": "psca-author-org",
        "name": "Wellness Way Hospital"
      }
    },
    {
      "fullUrl": "urn:uuid:7391a822-69ab-4e1c-a98a-3f79d4852f22",
      "resource": {
        "resourceType": "AllergyIntolerance",
        "id": "7391a822-69ab-4e1c-a98a-3f79d4852f22",
        "clinicalStatus": {
          "coding": [
            {
              "system": "http://terminology.hl7.org/CodeSystem/allergyintolerance-clinical",
              "code": "active"
            }
          ]
        },
        "verificationStatus": {
          "coding": [
            {
              "system": "http://terminology.hl7.org/CodeSystem/allergyintolerance-verification",
              "code": "confirmed"
            }
          ]
        },
        "code": {
          "coding": [
            {
              "system": "http://snomed.info/sct",
              "code": "233678006",
              "display": "Egg protein"
            }
          ]
        },
        "patient": {
          "reference": "urn:uuid:1fceb451-a7d3-4444-a99b-6572f540cc7b"
        },
        "reaction": [
          {
            "manifestation": [
              {
                "coding": [
                  {
                    "system": "http://snomed.info/sct",
                    "code": "271759003",
                    "display": "Wheezing"
                  }
                ]
              }
            ],
            "severity": "moderate"
          }
        ]
      }
    },
    {
      "fullUrl": "urn:uuid:09d82ae0-9479-472c-882d-9a2eec1d867e",
      "resource": {
        "resourceType": "MedicationStatement",
        "id": "09d82ae0-9479-472c-882d-9a2eec1d867e",
        "status": "active",
        "medicationCodeableConcept": {
          "coding": [
            {
              "system": "http://terminology.hl7.org/CodeSystem/hc-CCDD",
              "code": "2297795",
              "display": "APO-GLICLAZIDE MR (gliclazide 30 mg prolonged-release oral tablet) APOTEX INC"
            }
          ]
        },
        "subject": {
          "reference": "urn:uuid:1fceb451-a7d3-4444-a99b-6572f540cc7b"
        }
      }
    },
    {
      "fullUrl": "urn:uuid:596a9e73-2812-4312-98fb-41c35129d70b",
      "resource": {
        "resourceType": "Immunization",
        "id": "596a9e73-2812-4312-98fb-41c35129d70b",
        "status": "completed",
        "vaccineCode": {
          "coding": [
            {
              "system": "http://snomed.info/sct",
              "code": "28721000087103",
              "display": "[DTaP] TRIPACEL"
            }
          ]
        },
        "patient": {
          "reference": "urn:uuid:1fceb451-a7d3-4444-a99b-6572f540cc7b"
        },
        "occurrenceDateTime": "2024-08-13T00:00:00",
        "primarySource": true,
        "site": {
          "coding": [
            {
              "system": "http://terminology.hl7.org/CodeSystem/v2-0493",
              "code": "RA",
              "display": "Right arm"
            }
          ]
        },
        "route": {
          "coding": [
            {
              "system": "http://snomed.info/sct",
              "code": "78421000",
              "display": "Intramuscular: IM"
            }
          ]
        }
      }
    },
    {
      "fullUrl": "urn:uuid:7a8bb288-d939-4751-a016-74d04c790150",
      "resource": {
        "resourceType": "Immunization",
        "id": "7a8bb288-d939-4751-a016-74d04c790150",
        "status": "completed",
        "vaccineCode": {
          "coding": [
            {
              "system": "http://snomed.info/sct",
              "code": "28581000087106",
              "display": "[COVID-19] COMIRNATY (original strain) 30 mcg/0.3 mL"
            }
          ]
        },
        "patient": {
          "reference": "urn:uuid:1fceb451-a7d3-4444-a99b-6572f540cc7b"
        },
        "occurrenceDateTime": "2023-01-11T00:00:00",
        "primarySource": true,
        "site": {
          "coding": [
            {
              "system": "http://terminology.hl7.org/CodeSystem/v2-0493",
              "code": "RA",
              "display": "Right arm"
            }
          ]
        },
        "route": {
          "coding": [
            {
              "system": "http://snomed.info/sct",
              "code": "78421000",
              "display": "Intramuscular: IM"
            }
          ]
        }
      }
    },
    {
      "fullUrl": "urn:uuid:1d5bed60-73a7-4c43-b848-4040d19a6295",
      "resource": {
        "resourceType": "Immunization",
        "id": "1d5bed60-73a7-4c43-b848-4040d19a6295",
        "status": "completed",
        "vaccineCode": {
          "coding": [
            {
              "system": "http://snomed.info/sct",
              "code": "37651000087101",
              "display": "[COVID-19] SPIKEVAX Bivalent (Original / Omicron BA.4/BA.5) 0.10 mg/mL"
            }
          ]
        },
        "patient": {
          "reference": "urn:uuid:1fceb451-a7d3-4444-a99b-6572f540cc7b"
        },
        "occurrenceDateTime": "2023-06-05T00:00:00",
        "primarySource": true,
        "site": {
          "coding": [
            {
              "system": "http://terminology.hl7.org/CodeSystem/v2-0493",
              "code": "RA",
              "display": "Right arm"
            }
          ]
        },
        "route": {
          "coding": [
            {
              "system": "http://snomed.info/sct",
              "code": "78421000",
              "display": "Intramuscular: IM"
            }
          ]
        }
      }
    },
    {
      "fullUrl": "urn:uuid:2e01b2ee-2338-4b06-a59f-a578d82afa9f",
      "resource": {
        "resourceType": "Immunization",
        "id": "2e01b2ee-2338-4b06-a59f-a578d82afa9f",
        "status": "completed",
        "vaccineCode": {
          "coding": [
            {
              "system": "http://snomed.info/sct",
              "code": "51471000087104",
              "display": "[COVID-19] COMIRNATY Omicron XBB.1.5 30 mcg/0.3 mL"
            }
          ]
        },
        "patient": {
          "reference": "urn:uuid:1fceb451-a7d3-4444-a99b-6572f540cc7b"
        },
        "occurrenceDateTime": "2021-02-04T00:00:00",
        "primarySource": true,
        "site": {
          "coding": [
            {
              "system": "http://terminology.hl7.org/CodeSystem/v2-0493",
              "code": "LA",
              "display": "Left arm"
            }
          ]
        },
        "route": {
          "coding": [
            {
              "system": "http://snomed.info/sct",
              "code": "78421000",
              "display": "Intramuscular: IM"
            }
          ]
        }
      }
    },
    {
      "fullUrl": "urn:uuid:0511634f-19d1-44c7-9a9a-5a01766c21f4",
      "resource": {
        "resourceType": "Immunization",
        "id": "0511634f-19d1-44c7-9a9a-5a01766c21f4",
        "status": "completed",
        "vaccineCode": {
          "coding": [
            {
              "system": "http://snomed.info/sct",
              "code": "24381000087107",
              "display": "[Inf] AFLURIA TETRA"
            }
          ]
        },
        "patient": {
          "reference": "urn:uuid:1fceb451-a7d3-4444-a99b-6572f540cc7b"
        },
        "occurrenceDateTime": "2021-12-05T00:00:00",
        "primarySource": true,
        "site": {
          "coding": [
            {
              "system": "http://terminology.hl7.org/CodeSystem/v2-0493",
              "code": "LA",
              "display": "Left arm"
            }
          ]
        },
        "route": {
          "coding": [
            {
              "system": "http://snomed.info/sct",
              "code": "78421000",
              "display": "Intramuscular: IM"
            }
          ]
        }
      }
    },
    {
      "fullUrl": "urn:uuid:9757405c-674c-4da0-99d5-8780eed14376",
      "resource": {
        "resourceType": "Immunization",
        "id": "9757405c-674c-4da0-99d5-8780eed14376",
        "status": "completed",
        "vaccineCode": {
          "coding": [
            {
              "system": "http://snomed.info/sct",
              "code": "31541000087105",
              "display": "[Var] VARILRIX"
            }
          ]
        },
        "patient": {
          "reference": "urn:uuid:1fceb451-a7d3-4444-a99b-6572f540cc7b"
        },
        "occurrenceDateTime": "2024-11-18T00:00:00",
        "primarySource": true,
        "site": {
          "coding": [
            {
              "system": "http://terminology.hl7.org/CodeSystem/v2-0493",
              "code": "LA",
              "display": "Left arm"
            }
          ]
        },
        "route": {
          "coding": [
            {
              "system": "http://snomed.info/sct",
              "code": "78421000",
              "display": "Intramuscular: IM"
            }
          ]
        }
      }
    },
    {
      "fullUrl": "urn:uuid:84de07eb-8fea-4069-a416-98510bf8d4ee",
      "resource": {
        "resourceType": "Immunization",
        "id": "84de07eb-8fea-4069-a416-98510bf8d4ee",
        "status": "completed",
        "vaccineCode": {
          "coding": [
            {
              "system": "http://snomed.info/sct",
              "code": "28581000087106",
              "display": "[COVID-19] COMIRNATY (original strain) 30 mcg/0.3 mL"
            }
          ]
        },
        "patient": {
          "reference": "urn:uuid:1fceb451-a7d3-4444-a99b-6572f540cc7b"
        },
        "occurrenceDateTime": "2020-10-05T00:00:00",
        "primarySource": true,
        "site": {
          "coding": [
            {
              "system": "http://terminology.hl7.org/CodeSystem/v2-0493",
              "code": "RA",
              "display": "Right arm"
            }
          ]
        },
        "route": {
          "coding": [
            {
              "system": "http://snomed.info/sct",
              "code": "78421000",
              "display": "Intramuscular: IM"
            }
          ]
        }
      }
    }
  ]
}