{
  "resourceType": "Bundle",
  "type": "document",
  "entry": [
    {
      "fullUrl": "urn:uuid:db0395ff-fb1d-4ba4-afbb-e861fe2b6c9e",
      "resource": {
        "resourceType": "Composition",
        "id": "db0395ff-fb1d-4ba4-afbb-e861fe2b6c9e",
        "status": "final",
        "type": {
          "coding": [
            {
              "system": "http://loinc.org",
              "code": "60591-5",
              "display": "Patient summary Document"
            }
          ]
        },
        "subject": {
          "reference": "urn:uuid:7aea6975-044a-4db1-b8eb-77cf75c7c690"
        },
        "date": "2025-07-03T14:56:37.550404+00:00",
        "author": [
          {
            "reference": "urn:uuid:53570ea3-0847-4b53-96c5-d694aa66e919",
            "display": "Wellness Way Hospital"
          }
        ],
        "title": "PS-CA Patient Summary",
        "custodian": {
          "reference": "urn:uuid:53570ea3-0847-4b53-96c5-d694aa66e919",
          "display": "Wellness Way Hospital"
        },
        "section": [
          {
            "title": "Allergies",
            "code": {
              "coding": [
                {
                  "system": "http://loinc.org",
                  "code": "48765-2",
                  "display": "Allergies and adverse reactions Document"
                }
              ]
            },
            "entry": [
              {
                "reference": "urn:uuid:27c5b043-fb55-4586-ae86-199fa253cf2d"
              },
              {
                "reference": "urn:uuid:88148cb1-a759-4812-a895-cac3e9f662fd"
              }
            ]
          },
          {
            "title": "Medications",
            "code": {
              "coding": [
                {
                  "system": "http://loinc.org",
                  "code": "10160-0",
                  "display": "History of Medication use Narrative"
                }
              ]
            },
            "entry": [
              {
                "reference": "urn:uuid:e86970a1-dbf4-471f-a76e-cece8cede39f"
              },
              {
                "reference": "urn:uuid:34d696fa-535f-4782-9082-d8f153f7ad7c"
              }
            ]
          },
          {
            "title": "Immunizations",
            "code": {
              "coding": [
                {
                  "system": "http://loinc.org",
                  "code": "11369-6",
                  "display": "History of Immunization Narrative"
                }
              ]
            },
            "entry": [
              {
                "reference": "urn:uuid:facd7076-bd8f-42dc-9ce4-dd7911f8f83c"
              },
              {
                "reference": "urn:uuid:12472075-791f-47ef-80d2-192188d91e22"
              },
              {
                "reference": "urn:uuid:bfc1cfe4-42a4-48c2-88f9-c31028df9990"
              },
              {
                "reference": "urn:uuid:72a9d5cb-69d5-4e68-993f-06b31fba71ee"
              },
              {
                "reference": "urn:uuid:89abc0aa-3bf5-4a2c-b11b-e65b4a035a3a"
              },
              {
                "reference": "urn:uuid:46fad6c0-911f-4072-920d-5a2a03a61cc0"
              },
              {
                "reference": "urn:uuid:becc4068-e895-45b2-84b7-f74e68f616e5"
              },
              {
                "reference": "urn:uuid:02b02aff-308d-4dee-8f5c-e5f0b0caa4c0"
              },
              {
                "reference": "urn:uuid:90bbdb35-0b4c-4915-8b51-4bc283fdf193"
              }
            ]
          }
        ]
      }
    },
    {
      "fullUrl": "urn:uuid:7aea6975-044a-4db1-b8eb-77cf75c7c690",
      "resource": {
        "resourceType": "Patient",
        "id": "7aea6975-044a-4db1-b8eb-77cf75c7c690",
        "identifier": [
          {
            "system": "http://example.org/healthcardnumber",
            "value": "999 884 228"
          }
        ],
        "name": [
          {
            "family": "Duck",
            "given": [
              "Daffy"
            ]
          }
        ],
        "telecom": [
          {
            "system": "phone",
            "value": "(416) 850-5423 x573",
            "use": "home"
          },
          {
            "system": "email",
            "value": "Daffy.Duck@outlook.com",
            "use": "home"
          }
        ],
        "gender": "unknown",
        "birthDate": "1960-06-17",
        "address": [
          {
            "line": [
              "4330 Raymond Harbors Apt. 458"
            ],
            "city": "Christinaside",
            "state": "British Columbia",
            "postalCode": "H7H 4C8",
            "country": "Canada"
          }
        ],
        "photo": [
          {
            "contentType": "image/jpeg",
            "data": ""
          }
        ]
      }
    },
    {
      "fullUrl": "urn:uuid:53570ea3-0847-4b53-96c5-d694aa66e919",
      "resource": {
        "resourceType": "Organization",
        "id": "53570ea3-0847-4b53-96c5-d694aa66e919",
        "name": "Wellness Way Hospital"
      }
    },
    {
      "fullUrl": "urn:uuid:27c5b043-fb55-4586-ae86-199fa253cf2d",
      "resource": {
        "resourceType": "AllergyIntolerance",
        "id": "27c5b043-fb55-4586-ae86-199fa253cf2d",
        "clinicalStatus": {
          "coding": [
            {
              "system": "http://terminology.hl7.org/CodeSystem/allergyintolerance-clinical",
              "code": "active"
            }
          ]
        },
        "verificationStatus": {
          "coding": [
            {
              "system": "http://terminology.hl7.org/CodeSystem/allergyintolerance-verification",
              "code": "confirmed"
            }
          ]
        },
        "code": {
          "coding": [
            {
              "system": "http://snomed.info/sct",
              "code": "91930004",
              "display": "Latex"
            }
          ]
        },
        "patient": {
          "reference": "urn:uuid:7aea6975-044a-4db1-b8eb-77cf75c7c690"
        },
        "reaction": [
          {
            "manifestation": [
              {
                "coding": [
                  {
                    "system": "http://snomed.info/sct",
                    "code": "247472004",
                    "display": "Hives"
                  }
                ]
              }
            ],
            "severity": "severe"
          }
        ]
      }
    },
    {
      "fullUrl": "urn:uuid:88148cb1-a759-4812-a895-cac3e9f662fd",
      "resource": {
        "resourceType": "AllergyIntolerance",
        "id": "88148cb1-a759-4812-a895-cac3e9f662fd",
        "clinicalStatus": {
          "coding": [
            {
              "system": "http://terminology.hl7.org/CodeSystem/allergyintolerance-clinical",
              "code": "active"
            }
          ]
        },
        "verificationStatus": {
          "coding": [
            {
              "system": "http://terminology.hl7.org/CodeSystem/allergyintolerance-verification",
              "code": "confirmed"
            }
          ]
        },
        "code": {
          "coding": [
            {
              "system": "http://snomed.info/sct",
              "code": "91932001",
              "display": "Aspirin"
            }
          ]
        },
        "patient": {
          "reference": "urn:uuid:7aea6975-044a-4db1-b8eb-77cf75c7c690"
        },
        "reaction": [
          {
            "manifestation": [
              {
                "coding": [
                  {
                    "system": "http://snomed.info/sct",
                    "code": "271757001",
                    "display": "Anaphylaxis"
                  }
                ]
              }
            ],
            "severity": "mild"
          }
        ]
      }
    },
    {
      "fullUrl": "urn:uuid:e86970a1-dbf4-471f-a76e-cece8cede39f",
      "resource": {
        "resourceType": "MedicationStatement",
        "id": "e86970a1-dbf4-471f-a76e-cece8cede39f",
        "status": "active",
        "medicationCodeableConcept": {
          "coding": [
            {
              "system": "http://terminology.hl7.org/CodeSystem/hc-CCDD",
              "code": "9001234",
              "display": "\tduloxetine (duloxetine hydrochloride) 30 mg gastro-resistant capsule"
            }
          ]
        },
        "subject": {
          "reference": "urn:uuid:7aea6975-044a-4db1-b8eb-77cf75c7c690"
        }
      }
    },
    {
      "fullUrl": "urn:uuid:34d696fa-535f-4782-9082-d8f153f7ad7c",
      "resource": {
        "resourceType": "MedicationStatement",
        "id": "34d696fa-535f-4782-9082-d8f153f7ad7c",
        "status": "active",
        "medicationCodeableConcept": {
          "coding": [
            {
              "system": "http://terminology.hl7.org/CodeSystem/hc-CCDD",
              "code": "9000834",
              "display": "citalopram (citalopram hydrobromide) 20 mg oral tablet"
            }
          ]
        },
        "subject": {
          "reference": "urn:uuid:7aea6975-044a-4db1-b8eb-77cf75c7c690"
        }
      }
    },
    {
      "fullUrl": "urn:uuid:facd7076-bd8f-42dc-9ce4-dd7911f8f83c",
      "resource": {
        "resourceType": "Immunization",
        "id": "facd7076-bd8f-42dc-9ce4-dd7911f8f83c",
        "status": "completed",
        "vaccineCode": {
          "coding": [
            {
              "system": "http://snomed.info/sct",
              "code": "7361000087100",
              "display": "[IPV] IMOVAX POLIO"
            }
          ]
        },
        "patient": {
          "reference": "urn:uuid:7aea6975-044a-4db1-b8eb-77cf75c7c690"
        },
        "occurrenceDateTime": "2024-10-02T00:00:00",
        "primarySource": true,
        "site": {
          "coding": [
            {
              "system": "http://terminology.hl7.org/CodeSystem/v2-0493",
              "code": "RA",
              "display": "Right arm"
            }
          ]
        },
        "route": {
          "coding": [
            {
              "system": "http://snomed.info/sct",
              "code": "78421000",
              "display": "Intramuscular: IM"
            }
          ]
        }
      }
    },
    {
      "fullUrl": "urn:uuid:12472075-791f-47ef-80d2-192188d91e22",
      "resource": {
        "resourceType": "Immunization",
        "id": "12472075-791f-47ef-80d2-192188d91e22",
        "status": "completed",
        "vaccineCode": {
          "coding": [
            {
              "system": "http://snomed.info/sct",
              "code": "28581000087106",
              "display": "[COVID-19] COMIRNATY (original strain) 30 mcg/0.3 mL"
            }
          ]
        },
        "patient": {
          "reference": "urn:uuid:7aea6975-044a-4db1-b8eb-77cf75c7c690"
        },
        "occurrenceDateTime": "2022-12-13T00:00:00",
        "primarySource": true,
        "site": {
          "coding": [
            {
              "system": "http://terminology.hl7.org/CodeSystem/v2-0493",
              "code": "LA",
              "display": "Left arm"
            }
          ]
        },
        "route": {
          "coding": [
            {
              "system": "http://snomed.info/sct",
              "code": "78421000",
              "display": "Intramuscular: IM"
            }
          ]
        }
      }
    },
    {
      "fullUrl": "urn:uuid:bfc1cfe4-42a4-48c2-88f9-c31028df9990",
      "resource": {
        "resourceType": "Immunization",
        "id": "bfc1cfe4-42a4-48c2-88f9-c31028df9990",
        "status": "completed",
        "vaccineCode": {
          "coding": [
            {
              "system": "http://snomed.info/sct",
              "code": "37651000087101",
              "display": "[COVID-19] SPIKEVAX Bivalent (Original / Omicron BA.4/BA.5) 0.10 mg/mL"
            }
          ]
        },
        "patient": {
          "reference": "urn:uuid:7aea6975-044a-4db1-b8eb-77cf75c7c690"
        },
        "occurrenceDateTime": "2024-09-14T00:00:00",
        "primarySource": true,
        "site": {
          "coding": [
            {
              "system": "http://terminology.hl7.org/CodeSystem/v2-0493",
              "code": "RA",
              "display": "Right arm"
            }
          ]
        },
        "route": {
          "coding": [
            {
              "system": "http://snomed.info/sct",
              "code": "78421000",
              "display": "Intramuscular: IM"
            }
          ]
        }
      }
    },
    {
      "fullUrl": "urn:uuid:72a9d5cb-69d5-4e68-993f-06b31fba71ee",
      "resource": {
        "resourceType": "Immunization",
        "id": "72a9d5cb-69d5-4e68-993f-06b31fba71ee",
        "status": "completed",
        "vaccineCode": {
          "coding": [
            {
              "system": "http://snomed.info/sct",
              "code": "28581000087106",
              "display": "[COVID-19] COMIRNATY (original strain) 30 mcg/0.3 mL"
            }
          ]
        },
        "patient": {
          "reference": "urn:uuid:7aea6975-044a-4db1-b8eb-77cf75c7c690"
        },
        "occurrenceDateTime": "2022-03-18T00:00:00",
        "primarySource": true,
        "site": {
          "coding": [
            {
              "system": "http://terminology.hl7.org/CodeSystem/v2-0493",
              "code": "RA",
              "display": "Right arm"
            }
          ]
        },
        "route": {
          "coding": [
            {
              "system": "http://snomed.info/sct",
              "code": "78421000",
              "display": "Intramuscular: IM"
            }
          ]
        }
      }
    },
    {
      "fullUrl": "urn:uuid:89abc0aa-3bf5-4a2c-b11b-e65b4a035a3a",
      "resource": {
        "resourceType": "Immunization",
        "id": "89abc0aa-3bf5-4a2c-b11b-e65b4a035a3a",
        "status": "completed",
        "vaccineCode": {
          "coding": [
            {
              "system": "http://snomed.info/sct",
              "code": "51471000087104",
              "display": "[COVID-19] COMIRNATY Omicron XBB.1.5 30 mcg/0.3 mL"
            }
          ]
        },
        "patient": {
          "reference": "urn:uuid:7aea6975-044a-4db1-b8eb-77cf75c7c690"
        },
        "occurrenceDateTime": "2024-08-02T00:00:00",
        "primarySource": true,
        "site": {
          "coding": [
            {
              "system": "http://terminology.hl7.org/CodeSystem/v2-0493",
              "code": "RA",
              "display": "Right arm"
            }
          ]
        },
        "route": {
          "coding": [
            {
              "system": "http://snomed.info/sct",
              "code": "78421000",
              "display": "Intramuscular: IM"
            }
          ]
        }
      }
    },
    {
      "fullUrl": "urn:uuid:46fad6c0-911f-4072-920d-5a2a03a61cc0",
      "resource": {
        "resourceType": "Immunization",
        "id": "46fad6c0-911f-4072-920d-5a2a03a61cc0",
        "status": "completed",
        "vaccineCode": {
          "coding": [
            {
              "system": "http://snomed.info/sct",
              "code": "28721000087103",
              "display": "[DTaP] TRIPACEL"
            }
          ]
        },
        "patient": {
          "reference": "urn:uuid:7aea6975-044a-4db1-b8eb-77cf75c7c690"
        },
        "occurrenceDateTime": "2024-11-05T00:00:00",
        "primarySource": true,
        "site": {
          "coding": [
            {
              "system": "http://terminology.hl7.org/CodeSystem/v2-0493",
              "code": "RA",
              "display": "Right arm"
            }
          ]
        },
        "route": {
          "coding": [
            {
              "system": "http://snomed.info/sct",
              "code": "78421000",
              "display": "Intramuscular: IM"
            }
          ]
        }
      }
    },
    {
      "fullUrl": "urn:uuid:becc4068-e895-45b2-84b7-f74e68f616e5",
      "resource": {
        "resourceType": "Immunization",
        "id": "becc4068-e895-45b2-84b7-f74e68f616e5",
        "status": "completed",
        "vaccineCode": {
          "coding": [
            {
              "system": "http://snomed.info/sct",
              "code": "28581000087106",
              "display": "[COVID-19] COMIRNATY (original strain) 30 mcg/0.3 mL"
            }
          ]
        },
        "patient": {
          "reference": "urn:uuid:7aea6975-044a-4db1-b8eb-77cf75c7c690"
        },
        "occurrenceDateTime": "2020-08-30T00:00:00",
        "primarySource": true,
        "site": {
          "coding": [
            {
              "system": "http://terminology.hl7.org/CodeSystem/v2-0493",
              "code": "RA",
              "display": "Right arm"
            }
          ]
        },
        "route": {
          "coding": [
            {
              "system": "http://snomed.info/sct",
              "code": "78421000",
              "display": "Intramuscular: IM"
            }
          ]
        }
      }
    },
    {
      "fullUrl": "urn:uuid:02b02aff-308d-4dee-8f5c-e5f0b0caa4c0",
      "resource": {
        "resourceType": "Immunization",
        "id": "02b02aff-308d-4dee-8f5c-e5f0b0caa4c0",
        "status": "completed",
        "vaccineCode": {
          "coding": [
            {
              "system": "http://snomed.info/sct",
              "code": "31541000087105",
              "display": "[Var] VARILRIX"
            }
          ]
        },
        "patient": {
          "reference": "urn:uuid:7aea6975-044a-4db1-b8eb-77cf75c7c690"
        },
        "occurrenceDateTime": "2023-10-08T00:00:00",
        "primarySource": true,
        "site": {
          "coding": [
            {
              "system": "http://terminology.hl7.org/CodeSystem/v2-0493",
              "code": "RA",
              "display": "Right arm"
            }
          ]
        },
        "route": {
          "coding": [
            {
              "system": "http://snomed.info/sct",
              "code": "78421000",
              "display": "Intramuscular: IM"
            }
          ]
        }
      }
    },
    {
      "fullUrl": "urn:uuid:90bbdb35-0b4c-4915-8b51-4bc283fdf193",
      "resource": {
        "resourceType": "Immunization",
        "id": "90bbdb35-0b4c-4915-8b51-4bc283fdf193",
        "status": "completed",
        "vaccineCode": {
          "coding": [
            {
              "system": "http://snomed.info/sct",
              "code": "51471000087104",
              "display": "[COVID-19] COMIRNATY Omicron XBB.1.5 30 mcg/0.3 mL"
            }
          ]
        },
        "patient": {
          "reference": "urn:uuid:7aea6975-044a-4db1-b8eb-77cf75c7c690"
        },
        "occurrenceDateTime": "2021-08-09T00:00:00",
        "primarySource": true,
        "site": {
          "coding": [
            {
              "system": "http://terminology.hl7.org/CodeSystem/v2-0493",
              "code": "LA",
              "display": "Left arm"
            }
          ]
        },
        "route": {
          "coding": [
            {
              "system": "http://snomed.info/sct",
              "code": "78421000",
              "display": "Intramuscular: IM"
            }
          ]
        }
      }
    }
  ]
}