{
  "resourceType": "Bundle",
  "type": "document",
  "entry": [
    {
      "fullUrl": "urn:uuid:dcdaa7d8-34d1-4090-9ddb-b7804f304dac",
      "resource": {
        "resourceType": "Composition",
        "id": "dcdaa7d8-34d1-4090-9ddb-b7804f304dac",
        "status": "final",
        "type": {
          "coding": [
            {
              "system": "http://loinc.org",
              "code": "60591-5",
              "display": "Patient Summary"
            }
          ]
        },
        "subject": {
          "reference": "urn:uuid:c2a7d050-e5b2-495b-9056-7a6dbdb3c23d"
        },
        "date": "2025-06-23T23:51:27.528690+00:00",
        "title": "PS-CA Patient Summary",
        "author": [
          {
            "reference": "urn:uuid:psca-author-org",
            "display": "Wellness Way Hospital"
          }
        ],
        "custodian": {
          "reference": "urn:uuid:psca-author-org",
          "display": "Wellness Way Hospital"
        },
        "section": [
          {
            "title": "Allergies",
            "code": {
              "coding": [
                {
                  "system": "http://loinc.org",
                  "code": "48765-2",
                  "display": "Allergies and adverse reactions"
                }
              ]
            },
            "entry": [
              {
                "reference": "urn:uuid:648810b9-bede-4e10-a9d8-1a3968124573"
              },
              {
                "reference": "urn:uuid:e26f0b65-1382-4545-958a-3af19e9878fd"
              }
            ]
          },
          {
            "title": "Problems",
            "code": {
              "coding": [
                {
                  "system": "http://loinc.org",
                  "code": "11450-4",
                  "display": "Problem List"
                }
              ]
            },
            "entry": [
              {
                "reference": "urn:uuid:e1f6483b-d6e8-4b7d-b2d1-dd756079e5f6"
              }
            ]
          },
          {
            "title": "Medications",
            "code": {
              "coding": [
                {
                  "system": "http://loinc.org",
                  "code": "10160-0",
                  "display": "History of Medication Use"
                }
              ]
            },
            "entry": [
              {
                "reference": "urn:uuid:a0e7181b-b1c7-4773-9421-737cc5b6f09b"
              }
            ]
          },
          {
            "title": "Immunizations",
            "code": {
              "coding": [
                {
                  "system": "http://loinc.org",
                  "code": "11369-6",
                  "display": "History of immunizations"
                }
              ]
            },
            "entry": [
              {
                "reference": "urn:uuid:4df79468-28c6-4d41-8803-a51e106d4137"
              },
              {
                "reference": "urn:uuid:101894f6-bcb2-468a-8285-91e19ed547af"
              },
              {
                "reference": "urn:uuid:ace5d086-18ac-42be-bae6-cd8fa2e9b00e"
              },
              {
                "reference": "urn:uuid:78aeca7b-6929-4b8b-ab2c-675507d56c92"
              },
              {
                "reference": "urn:uuid:498fa859-f16a-48f2-8624-cb916fb4f7ea"
              },
              {
                "reference": "urn:uuid:3a27e697-eb57-4e05-9fa8-0e47b02b395a"
              },
              {
                "reference": "urn:uuid:8822698c-4c88-4d0e-ad39-459e2312c49d"
              },
              {
                "reference": "urn:uuid:3569c065-fd48-4e1d-aba2-86926630d6cc"
              }
            ]
          }
        ]
      }
    },
    {
      "fullUrl": "urn:uuid:c2a7d050-e5b2-495b-9056-7a6dbdb3c23d",
      "resource": {
        "resourceType": "Patient",
        "id": "c2a7d050-e5b2-495b-9056-7a6dbdb3c23d",
        "identifier": [
          {
            "system": "http://example.org/healthcardnumber",
            "value": "999 586 662"
          }
        ],
        "name": [
          {
            "family": "Bird",
            "given": [
              "Tweety"
            ]
          }
        ],
        "gender": "other",
        "birthDate": "1963-03-10",
        "telecom": [
          {
            "system": "phone",
            "value": "+1 (422) 292-7065",
            "use": "home"
          },
          {
            "system": "email",
            "value": "Tweety.Bird@outlook.com",
            "use": "home"
          }
        ],
        "address": [
          {
            "line": [
              "655 Obrien Pass"
            ],
            "city": "Marcusbury",
            "state": "Newfoundland and Labrador",
            "postalCode": "M2Y 8H6",
            "country": "Canada"
          }
        ],
        "photo": [
          {
            "contentType": "image/jpeg",
            "data": ""
          }
        ]
      }
    },
    {
      "fullUrl": "urn:uuid:psca-author-org",
      "resource": {
        "resourceType": "Organization",
        "id": "psca-author-org",
        "name": "Wellness Way Hospital"
      }
    },
    {
      "fullUrl": "urn:uuid:e1f6483b-d6e8-4b7d-b2d1-dd756079e5f6",
      "resource": {
        "resourceType": "Condition",
        "id": "e1f6483b-d6e8-4b7d-b2d1-dd756079e5f6",
        "subject": {
          "reference": "urn:uuid:c2a7d050-e5b2-495b-9056-7a6dbdb3c23d"
        },
        "code": {
          "coding": [
            {
              "system": "http://snomed.info/sct",
              "code": "195967001",
              "display": "Asthma (disorder)"
            }
          ]
        }
      }
    },
    {
      "fullUrl": "urn:uuid:a0e7181b-b1c7-4773-9421-737cc5b6f09b",
      "resource": {
        "resourceType": "MedicationStatement",
        "id": "a0e7181b-b1c7-4773-9421-737cc5b6f09b",
        "subject": {
          "reference": "urn:uuid:c2a7d050-e5b2-495b-9056-7a6dbdb3c23d"
        },
        "medicationCodeableConcept": {
          "coding": [
            {
              "system": "http://terminology.hl7.org/CodeSystem/hc-CCDD",
              "code": "9000809",
              "display": "montelukast (montelukast sodium) 10 mg oral tablet"
            }
          ]
        },
        "status": "active"
      }
    },
    {
      "fullUrl": "urn:uuid:648810b9-bede-4e10-a9d8-1a3968124573",
      "resource": {
        "resourceType": "AllergyIntolerance",
        "id": "648810b9-bede-4e10-a9d8-1a3968124573",
        "clinicalStatus": {
          "coding": [
            {
              "system": "http://terminology.hl7.org/CodeSystem/allergyintolerance-clinical",
              "code": "active"
            }
          ]
        },
        "verificationStatus": {
          "coding": [
            {
              "system": "http://terminology.hl7.org/CodeSystem/allergyintolerance-verification",
              "code": "confirmed"
            }
          ]
        },
        "criticality": "low",
        "code": {
          "coding": [
            {
              "system": "http://snomed.info/sct",
              "code": 91930004,
              "display": "Latex"
            }
          ]
        },
        "reaction": [
          {
            "manifestation": [
              {
                "coding": [
                  {
                    "system": "http://snomed.info/sct",
                    "code": 247472004,
                    "display": "Hives"
                  }
                ]
              }
            ],
            "severity": "severe"
          }
        ],
        "patient": {
          "reference": "urn:uuid:c2a7d050-e5b2-495b-9056-7a6dbdb3c23d"
        }
      }
    },
    {
      "fullUrl": "urn:uuid:e26f0b65-1382-4545-958a-3af19e9878fd",
      "resource": {
        "resourceType": "AllergyIntolerance",
        "id": "e26f0b65-1382-4545-958a-3af19e9878fd",
        "clinicalStatus": {
          "coding": [
            {
              "system": "http://terminology.hl7.org/CodeSystem/allergyintolerance-clinical",
              "code": "active"
            }
          ]
        },
        "verificationStatus": {
          "coding": [
            {
              "system": "http://terminology.hl7.org/CodeSystem/allergyintolerance-verification",
              "code": "confirmed"
            }
          ]
        },
        "criticality": "high",
        "code": {
          "coding": [
            {
              "system": "http://snomed.info/sct",
              "code": 227493005,
              "display": "Milk protein"
            }
          ]
        },
        "reaction": [
          {
            "manifestation": [
              {
                "coding": [
                  {
                    "system": "http://snomed.info/sct",
                    "code": 422400008,
                    "display": "Rash"
                  }
                ]
              }
            ],
            "severity": "moderate"
          }
        ],
        "patient": {
          "reference": "urn:uuid:c2a7d050-e5b2-495b-9056-7a6dbdb3c23d"
        }
      }
    },
    {
      "fullUrl": "urn:uuid:4df79468-28c6-4d41-8803-a51e106d4137",
      "resource": {
        "resourceType": "Immunization",
        "id": "4df79468-28c6-4d41-8803-a51e106d4137",
        "status": "completed",
        "vaccineCode": {
          "coding": [
            {
              "system": "http://snomed.info/sct",
              "code": "37651000087101",
              "display": "[COVID-19] SPIKEVAX Bivalent (Original / Omicron BA.4/BA.5) 0.10 mg/mL"
            }
          ]
        },
        "patient": {
          "reference": "urn:uuid:c2a7d050-e5b2-495b-9056-7a6dbdb3c23d"
        },
        "occurrenceDateTime": "2024-04-16",
        "primarySource": true,
        "site": {
          "coding": [
            {
              "system": "http://terminology.hl7.org/CodeSystem/v2-0493",
              "code": "RA",
              "display": "Right arm"
            }
          ]
        },
        "route": {
          "coding": [
            {
              "system": "http://snomed.info/sct",
              "code": 78421000,
              "display": "Intramuscular: IM"
            }
          ]
        }
      }
    },
    {
      "fullUrl": "urn:uuid:101894f6-bcb2-468a-8285-91e19ed547af",
      "resource": {
        "resourceType": "Immunization",
        "id": "101894f6-bcb2-468a-8285-91e19ed547af",
        "status": "completed",
        "vaccineCode": {
          "coding": [
            {
              "system": "http://snomed.info/sct",
              "code": "28721000087103",
              "display": "[DTaP] TRIPACEL"
            }
          ]
        },
        "patient": {
          "reference": "urn:uuid:c2a7d050-e5b2-495b-9056-7a6dbdb3c23d"
        },
        "occurrenceDateTime": "2024-09-18",
        "primarySource": true,
        "site": {
          "coding": [
            {
              "system": "http://terminology.hl7.org/CodeSystem/v2-0493",
              "code": "LA",
              "display": "Left arm"
            }
          ]
        },
        "route": {
          "coding": [
            {
              "system": "http://snomed.info/sct",
              "code": 78421000,
              "display": "Intramuscular: IM"
            }
          ]
        }
      }
    },
    {
      "fullUrl": "urn:uuid:ace5d086-18ac-42be-bae6-cd8fa2e9b00e",
      "resource": {
        "resourceType": "Immunization",
        "id": "ace5d086-18ac-42be-bae6-cd8fa2e9b00e",
        "status": "completed",
        "vaccineCode": {
          "coding": [
            {
              "system": "http://snomed.info/sct",
              "code": "24381000087107",
              "display": "[Inf] AFLURIA TETRA"
            }
          ]
        },
        "patient": {
          "reference": "urn:uuid:c2a7d050-e5b2-495b-9056-7a6dbdb3c23d"
        },
        "occurrenceDateTime": "2025-03-14",
        "primarySource": true,
        "site": {
          "coding": [
            {
              "system": "http://terminology.hl7.org/CodeSystem/v2-0493",
              "code": "LA",
              "display": "Left arm"
            }
          ]
        },
        "route": {
          "coding": [
            {
              "system": "http://snomed.info/sct",
              "code": 78421000,
              "display": "Intramuscular: IM"
            }
          ]
        }
      }
    },
    {
      "fullUrl": "urn:uuid:78aeca7b-6929-4b8b-ab2c-675507d56c92",
      "resource": {
        "resourceType": "Immunization",
        "id": "78aeca7b-6929-4b8b-ab2c-675507d56c92",
        "status": "completed",
        "vaccineCode": {
          "coding": [
            {
              "system": "http://snomed.info/sct",
              "code": "31541000087105",
              "display": "[Var] VARILRIX"
            }
          ]
        },
        "patient": {
          "reference": "urn:uuid:c2a7d050-e5b2-495b-9056-7a6dbdb3c23d"
        },
        "occurrenceDateTime": "2025-01-18",
        "primarySource": true,
        "site": {
          "coding": [
            {
              "system": "http://terminology.hl7.org/CodeSystem/v2-0493",
              "code": "LA",
              "display": "Left arm"
            }
          ]
        },
        "route": {
          "coding": [
            {
              "system": "http://snomed.info/sct",
              "code": 78421000,
              "display": "Intramuscular: IM"
            }
          ]
        }
      }
    },
    {
      "fullUrl": "urn:uuid:498fa859-f16a-48f2-8624-cb916fb4f7ea",
      "resource": {
        "resourceType": "Immunization",
        "id": "498fa859-f16a-48f2-8624-cb916fb4f7ea",
        "status": "completed",
        "vaccineCode": {
          "coding": [
            {
              "system": "http://snomed.info/sct",
              "code": "51471000087104",
              "display": "[COVID-19] COMIRNATY Omicron XBB.1.5 30 mcg/0.3 mL"
            }
          ]
        },
        "patient": {
          "reference": "urn:uuid:c2a7d050-e5b2-495b-9056-7a6dbdb3c23d"
        },
        "occurrenceDateTime": "2022-01-29",
        "primarySource": true,
        "site": {
          "coding": [
            {
              "system": "http://terminology.hl7.org/CodeSystem/v2-0493",
              "code": "LA",
              "display": "Left arm"
            }
          ]
        },
        "route": {
          "coding": [
            {
              "system": "http://snomed.info/sct",
              "code": 78421000,
              "display": "Intramuscular: IM"
            }
          ]
        }
      }
    },
    {
      "fullUrl": "urn:uuid:3a27e697-eb57-4e05-9fa8-0e47b02b395a",
      "resource": {
        "resourceType": "Immunization",
        "id": "3a27e697-eb57-4e05-9fa8-0e47b02b395a",
        "status": "completed",
        "vaccineCode": {
          "coding": [
            {
              "system": "http://snomed.info/sct",
              "code": "7161000087102",
              "display": "[MMR] M-M-R II"
            }
          ]
        },
        "patient": {
          "reference": "urn:uuid:c2a7d050-e5b2-495b-9056-7a6dbdb3c23d"
        },
        "occurrenceDateTime": "2021-09-01",
        "primarySource": true,
        "site": {
          "coding": [
            {
              "system": "http://terminology.hl7.org/CodeSystem/v2-0493",
              "code": "RA",
              "display": "Right arm"
            }
          ]
        },
        "route": {
          "coding": [
            {
              "system": "http://snomed.info/sct",
              "code": 78421000,
              "display": "Intramuscular: IM"
            }
          ]
        }
      }
    },
    {
      "fullUrl": "urn:uuid:8822698c-4c88-4d0e-ad39-459e2312c49d",
      "resource": {
        "resourceType": "Immunization",
        "id": "8822698c-4c88-4d0e-ad39-459e2312c49d",
        "status": "completed",
        "vaccineCode": {
          "coding": [
            {
              "system": "http://snomed.info/sct",
              "code": "51471000087104",
              "display": "[COVID-19] COMIRNATY Omicron XBB.1.5 30 mcg/0.3 mL"
            }
          ]
        },
        "patient": {
          "reference": "urn:uuid:c2a7d050-e5b2-495b-9056-7a6dbdb3c23d"
        },
        "occurrenceDateTime": "2022-12-05",
        "primarySource": true,
        "site": {
          "coding": [
            {
              "system": "http://terminology.hl7.org/CodeSystem/v2-0493",
              "code": "LA",
              "display": "Left arm"
            }
          ]
        },
        "route": {
          "coding": [
            {
              "system": "http://snomed.info/sct",
              "code": 78421000,
              "display": "Intramuscular: IM"
            }
          ]
        }
      }
    },
    {
      "fullUrl": "urn:uuid:3569c065-fd48-4e1d-aba2-86926630d6cc",
      "resource": {
        "resourceType": "Immunization",
        "id": "3569c065-fd48-4e1d-aba2-86926630d6cc",
        "status": "completed",
        "vaccineCode": {
          "coding": [
            {
              "system": "http://snomed.info/sct",
              "code": "24381000087107",
              "display": "[Inf] AFLURIA TETRA"
            }
          ]
        },
        "patient": {
          "reference": "urn:uuid:c2a7d050-e5b2-495b-9056-7a6dbdb3c23d"
        },
        "occurrenceDateTime": "2024-04-27",
        "primarySource": true,
        "site": {
          "coding": [
            {
              "system": "http://terminology.hl7.org/CodeSystem/v2-0493",
              "code": "RA",
              "display": "Right arm"
            }
          ]
        },
        "route": {
          "coding": [
            {
              "system": "http://snomed.info/sct",
              "code": 78421000,
              "display": "Intramuscular: IM"
            }
          ]
        }
      }
    }
  ]
}