{
  "resourceType": "Bundle",
  "type": "document",
  "entry": [
    {
      "fullUrl": "urn:uuid:ff126bea-25b7-4c11-9760-fe082f735178",
      "resource": {
        "resourceType": "Composition",
        "id": "ff126bea-25b7-4c11-9760-fe082f735178",
        "status": "final",
        "type": {
          "coding": [
            {
              "system": "http://loinc.org",
              "code": "60591-5",
              "display": "Patient Summary"
            }
          ]
        },
        "subject": {
          "reference": "urn:uuid:4404bec0-aad2-4a40-b9c7-259d522adc7b"
        },
        "date": "2025-06-23T23:51:27.958143+00:00",
        "title": "PS-CA Patient Summary",
        "author": [
          {
            "reference": "urn:uuid:psca-author-org",
            "display": "Wellness Way Hospital"
          }
        ],
        "custodian": {
          "reference": "urn:uuid:psca-author-org",
          "display": "Wellness Way Hospital"
        },
        "section": [
          {
            "title": "Allergies",
            "code": {
              "coding": [
                {
                  "system": "http://loinc.org",
                  "code": "48765-2",
                  "display": "Allergies and adverse reactions"
                }
              ]
            },
            "entry": [
              {
                "reference": "urn:uuid:5e0465c4-f820-48c0-9517-ee72103e2e70"
              },
              {
                "reference": "urn:uuid:c084961e-da97-47c5-a0d6-7084890575a7"
              }
            ]
          },
          {
            "title": "Problems",
            "code": {
              "coding": [
                {
                  "system": "http://loinc.org",
                  "code": "11450-4",
                  "display": "Problem List"
                }
              ]
            },
            "entry": [
              {
                "reference": "urn:uuid:07462255-75b7-4324-9494-ac5e711ce7e8"
              },
              {
                "reference": "urn:uuid:fe3b8b9e-3b44-4698-83c8-67b6a06006c2"
              },
              {
                "reference": "urn:uuid:33444db7-f39e-4eb1-a97f-658bbeb2b41c"
              }
            ]
          },
          {
            "title": "Medications",
            "code": {
              "coding": [
                {
                  "system": "http://loinc.org",
                  "code": "10160-0",
                  "display": "History of Medication Use"
                }
              ]
            },
            "entry": [
              {
                "reference": "urn:uuid:bc2d409d-8c7a-4df5-89d5-c6c06d3403ec"
              },
              {
                "reference": "urn:uuid:2f2d4d9c-fa64-4099-9eb0-63891ed6d7e2"
              },
              {
                "reference": "urn:uuid:88699f52-6988-4bc0-9838-adf22c795665"
              }
            ]
          },
          {
            "title": "Immunizations",
            "code": {
              "coding": [
                {
                  "system": "http://loinc.org",
                  "code": "11369-6",
                  "display": "History of immunizations"
                }
              ]
            },
            "entry": [
              {
                "reference": "urn:uuid:54d00619-3400-422d-9272-6743002b2456"
              },
              {
                "reference": "urn:uuid:a24cba17-e4ed-496e-a87c-fcb02d801ee9"
              },
              {
                "reference": "urn:uuid:23ef54c6-56cb-4193-8070-f51da20b4c17"
              },
              {
                "reference": "urn:uuid:71efe7d3-1dbf-4fdd-be60-97005d6e2549"
              },
              {
                "reference": "urn:uuid:2183bea9-8c71-4f9b-b2ed-d044c80e5745"
              },
              {
                "reference": "urn:uuid:1e7c3e4d-a2de-4cda-9856-e57ba662528e"
              },
              {
                "reference": "urn:uuid:eb2f1c78-fa8f-4ee3-9605-bb5691bc4d00"
              },
              {
                "reference": "urn:uuid:ff7252fe-18a0-4e38-9d45-4cb6e2ff55d4"
              },
              {
                "reference": "urn:uuid:d08a5d58-16be-4280-9fcd-cbff4ee1bcf2"
              },
              {
                "reference": "urn:uuid:516f67e3-92aa-4fce-af12-ca669a7187d2"
              }
            ]
          }
        ]
      }
    },
    {
      "fullUrl": "urn:uuid:4404bec0-aad2-4a40-b9c7-259d522adc7b",
      "resource": {
        "resourceType": "Patient",
        "id": "4404bec0-aad2-4a40-b9c7-259d522adc7b",
        "identifier": [
          {
            "system": "http://example.org/healthcardnumber",
            "value": "999 806 305"
          }
        ],
        "name": [
          {
            "family": "Bird",
            "given": [
              "Woodstock"
            ]
          }
        ],
        "gender": "male",
        "birthDate": "2022-02-21",
        "telecom": [
          {
            "system": "phone",
            "value": "1-472-779-0104",
            "use": "home"
          },
          {
            "system": "email",
            "value": "Woodstock.Bird@outlook.com",
            "use": "home"
          }
        ],
        "address": [
          {
            "line": [
              "34332 Brandon Mountains Apt. 769"
            ],
            "city": "New Stacyland",
            "state": "Saskatchewan",
            "postalCode": "N4S 3H9",
            "country": "Canada"
          }
        ],
        "photo": [
          {
            "contentType": "image/jpeg",
            "data": ""
          }
        ]
      }
    },
    {
      "fullUrl": "urn:uuid:psca-author-org",
      "resource": {
        "resourceType": "Organization",
        "id": "psca-author-org",
        "name": "Wellness Way Hospital"
      }
    },
    {
      "fullUrl": "urn:uuid:07462255-75b7-4324-9494-ac5e711ce7e8",
      "resource": {
        "resourceType": "Condition",
        "id": "07462255-75b7-4324-9494-ac5e711ce7e8",
        "subject": {
          "reference": "urn:uuid:4404bec0-aad2-4a40-b9c7-259d522adc7b"
        },
        "code": {
          "coding": [
            {
              "system": "http://snomed.info/sct",
              "code": "73211009",
              "display": "Obesity (disorder)"
            }
          ]
        }
      }
    },
    {
      "fullUrl": "urn:uuid:fe3b8b9e-3b44-4698-83c8-67b6a06006c2",
      "resource": {
        "resourceType": "Condition",
        "id": "fe3b8b9e-3b44-4698-83c8-67b6a06006c2",
        "subject": {
          "reference": "urn:uuid:4404bec0-aad2-4a40-b9c7-259d522adc7b"
        },
        "code": {
          "coding": [
            {
              "system": "http://snomed.info/sct",
              "code": "422504002",
              "display": "Ischemic heart disease (disorder)"
            }
          ]
        }
      }
    },
    {
      "fullUrl": "urn:uuid:33444db7-f39e-4eb1-a97f-658bbeb2b41c",
      "resource": {
        "resourceType": "Condition",
        "id": "33444db7-f39e-4eb1-a97f-658bbeb2b41c",
        "subject": {
          "reference": "urn:uuid:4404bec0-aad2-4a40-b9c7-259d522adc7b"
        },
        "code": {
          "coding": [
            {
              "system": "http://snomed.info/sct",
              "code": "13645005",
              "display": "Osteoarthritis (disorder)"
            }
          ]
        }
      }
    },
    {
      "fullUrl": "urn:uuid:bc2d409d-8c7a-4df5-89d5-c6c06d3403ec",
      "resource": {
        "resourceType": "MedicationStatement",
        "id": "bc2d409d-8c7a-4df5-89d5-c6c06d3403ec",
        "subject": {
          "reference": "urn:uuid:4404bec0-aad2-4a40-b9c7-259d522adc7b"
        },
        "medicationCodeableConcept": {
          "coding": [
            {
              "system": "http://terminology.hl7.org/CodeSystem/hc-CCDD",
              "code": "9000973",
              "display": "\talendronic acid (alendronate sodium) 70 mg oral tablet"
            }
          ]
        },
        "status": "active"
      }
    },
    {
      "fullUrl": "urn:uuid:2f2d4d9c-fa64-4099-9eb0-63891ed6d7e2",
      "resource": {
        "resourceType": "MedicationStatement",
        "id": "2f2d4d9c-fa64-4099-9eb0-63891ed6d7e2",
        "subject": {
          "reference": "urn:uuid:4404bec0-aad2-4a40-b9c7-259d522adc7b"
        },
        "medicationCodeableConcept": {
          "coding": [
            {
              "system": "http://terminology.hl7.org/CodeSystem/hc-CCDD",
              "code": "9000021",
              "display": "warfarin sodium 5 mg oral tablet"
            }
          ]
        },
        "status": "active"
      }
    },
    {
      "fullUrl": "urn:uuid:88699f52-6988-4bc0-9838-adf22c795665",
      "resource": {
        "resourceType": "MedicationStatement",
        "id": "88699f52-6988-4bc0-9838-adf22c795665",
        "subject": {
          "reference": "urn:uuid:4404bec0-aad2-4a40-b9c7-259d522adc7b"
        },
        "medicationCodeableConcept": {
          "coding": [
            {
              "system": "http://terminology.hl7.org/CodeSystem/hc-CCDD",
              "code": "9000398",
              "display": "amlodipine (amlodipine besylate) 10 mg oral tablet"
            }
          ]
        },
        "status": "active"
      }
    },
    {
      "fullUrl": "urn:uuid:5e0465c4-f820-48c0-9517-ee72103e2e70",
      "resource": {
        "resourceType": "AllergyIntolerance",
        "id": "5e0465c4-f820-48c0-9517-ee72103e2e70",
        "clinicalStatus": {
          "coding": [
            {
              "system": "http://terminology.hl7.org/CodeSystem/allergyintolerance-clinical",
              "code": "active"
            }
          ]
        },
        "verificationStatus": {
          "coding": [
            {
              "system": "http://terminology.hl7.org/CodeSystem/allergyintolerance-verification",
              "code": "confirmed"
            }
          ]
        },
        "criticality": "unable-to-assess",
        "code": {
          "coding": [
            {
              "system": "http://snomed.info/sct",
              "code": 282100009,
              "display": "Tree nuts"
            }
          ]
        },
        "reaction": [
          {
            "manifestation": [
              {
                "coding": [
                  {
                    "system": "http://snomed.info/sct",
                    "code": 422400008,
                    "display": "Rash"
                  }
                ]
              }
            ],
            "severity": "severe"
          }
        ],
        "patient": {
          "reference": "urn:uuid:4404bec0-aad2-4a40-b9c7-259d522adc7b"
        }
      }
    },
    {
      "fullUrl": "urn:uuid:c084961e-da97-47c5-a0d6-7084890575a7",
      "resource": {
        "resourceType": "AllergyIntolerance",
        "id": "c084961e-da97-47c5-a0d6-7084890575a7",
        "clinicalStatus": {
          "coding": [
            {
              "system": "http://terminology.hl7.org/CodeSystem/allergyintolerance-clinical",
              "code": "active"
            }
          ]
        },
        "verificationStatus": {
          "coding": [
            {
              "system": "http://terminology.hl7.org/CodeSystem/allergyintolerance-verification",
              "code": "confirmed"
            }
          ]
        },
        "criticality": "unable-to-assess",
        "code": {
          "coding": [
            {
              "system": "http://snomed.info/sct",
              "code": 91937009,
              "display": "Ibuprofen"
            }
          ]
        },
        "reaction": [
          {
            "manifestation": [
              {
                "coding": [
                  {
                    "system": "http://snomed.info/sct",
                    "code": 247472004,
                    "display": "Hives"
                  }
                ]
              }
            ],
            "severity": "severe"
          }
        ],
        "patient": {
          "reference": "urn:uuid:4404bec0-aad2-4a40-b9c7-259d522adc7b"
        }
      }
    },
    {
      "fullUrl": "urn:uuid:54d00619-3400-422d-9272-6743002b2456",
      "resource": {
        "resourceType": "Immunization",
        "id": "54d00619-3400-422d-9272-6743002b2456",
        "status": "completed",
        "vaccineCode": {
          "coding": [
            {
              "system": "http://snomed.info/sct",
              "code": "28721000087103",
              "display": "[DTaP] TRIPACEL"
            }
          ]
        },
        "patient": {
          "reference": "urn:uuid:4404bec0-aad2-4a40-b9c7-259d522adc7b"
        },
        "occurrenceDateTime": "2021-01-29",
        "primarySource": true,
        "site": {
          "coding": [
            {
              "system": "http://terminology.hl7.org/CodeSystem/v2-0493",
              "code": "RA",
              "display": "Right arm"
            }
          ]
        },
        "route": {
          "coding": [
            {
              "system": "http://snomed.info/sct",
              "code": 78421000,
              "display": "Intramuscular: IM"
            }
          ]
        }
      }
    },
    {
      "fullUrl": "urn:uuid:a24cba17-e4ed-496e-a87c-fcb02d801ee9",
      "resource": {
        "resourceType": "Immunization",
        "id": "a24cba17-e4ed-496e-a87c-fcb02d801ee9",
        "status": "completed",
        "vaccineCode": {
          "coding": [
            {
              "system": "http://snomed.info/sct",
              "code": "31541000087105",
              "display": "[Var] VARILRIX"
            }
          ]
        },
        "patient": {
          "reference": "urn:uuid:4404bec0-aad2-4a40-b9c7-259d522adc7b"
        },
        "occurrenceDateTime": "2024-12-04",
        "primarySource": true,
        "site": {
          "coding": [
            {
              "system": "http://terminology.hl7.org/CodeSystem/v2-0493",
              "code": "RA",
              "display": "Right arm"
            }
          ]
        },
        "route": {
          "coding": [
            {
              "system": "http://snomed.info/sct",
              "code": 78421000,
              "display": "Intramuscular: IM"
            }
          ]
        }
      }
    },
    {
      "fullUrl": "urn:uuid:23ef54c6-56cb-4193-8070-f51da20b4c17",
      "resource": {
        "resourceType": "Immunization",
        "id": "23ef54c6-56cb-4193-8070-f51da20b4c17",
        "status": "completed",
        "vaccineCode": {
          "coding": [
            {
              "system": "http://snomed.info/sct",
              "code": "24381000087107",
              "display": "[Inf] AFLURIA TETRA"
            }
          ]
        },
        "patient": {
          "reference": "urn:uuid:4404bec0-aad2-4a40-b9c7-259d522adc7b"
        },
        "occurrenceDateTime": "2022-04-21",
        "primarySource": true,
        "site": {
          "coding": [
            {
              "system": "http://terminology.hl7.org/CodeSystem/v2-0493",
              "code": "RA",
              "display": "Right arm"
            }
          ]
        },
        "route": {
          "coding": [
            {
              "system": "http://snomed.info/sct",
              "code": 78421000,
              "display": "Intramuscular: IM"
            }
          ]
        }
      }
    },
    {
      "fullUrl": "urn:uuid:71efe7d3-1dbf-4fdd-be60-97005d6e2549",
      "resource": {
        "resourceType": "Immunization",
        "id": "71efe7d3-1dbf-4fdd-be60-97005d6e2549",
        "status": "completed",
        "vaccineCode": {
          "coding": [
            {
              "system": "http://snomed.info/sct",
              "code": "37651000087101",
              "display": "[COVID-19] SPIKEVAX Bivalent (Original / Omicron BA.4/BA.5) 0.10 mg/mL"
            }
          ]
        },
        "patient": {
          "reference": "urn:uuid:4404bec0-aad2-4a40-b9c7-259d522adc7b"
        },
        "occurrenceDateTime": "2020-10-16",
        "primarySource": true,
        "site": {
          "coding": [
            {
              "system": "http://terminology.hl7.org/CodeSystem/v2-0493",
              "code": "LA",
              "display": "Left arm"
            }
          ]
        },
        "route": {
          "coding": [
            {
              "system": "http://snomed.info/sct",
              "code": 78421000,
              "display": "Intramuscular: IM"
            }
          ]
        }
      }
    },
    {
      "fullUrl": "urn:uuid:2183bea9-8c71-4f9b-b2ed-d044c80e5745",
      "resource": {
        "resourceType": "Immunization",
        "id": "2183bea9-8c71-4f9b-b2ed-d044c80e5745",
        "status": "completed",
        "vaccineCode": {
          "coding": [
            {
              "system": "http://snomed.info/sct",
              "code": "28581000087106",
              "display": "[COVID-19] COMIRNATY (original strain) 30 mcg/0.3 mL"
            }
          ]
        },
        "patient": {
          "reference": "urn:uuid:4404bec0-aad2-4a40-b9c7-259d522adc7b"
        },
        "occurrenceDateTime": "2021-12-05",
        "primarySource": true,
        "site": {
          "coding": [
            {
              "system": "http://terminology.hl7.org/CodeSystem/v2-0493",
              "code": "RA",
              "display": "Right arm"
            }
          ]
        },
        "route": {
          "coding": [
            {
              "system": "http://snomed.info/sct",
              "code": 78421000,
              "display": "Intramuscular: IM"
            }
          ]
        }
      }
    },
    {
      "fullUrl": "urn:uuid:1e7c3e4d-a2de-4cda-9856-e57ba662528e",
      "resource": {
        "resourceType": "Immunization",
        "id": "1e7c3e4d-a2de-4cda-9856-e57ba662528e",
        "status": "completed",
        "vaccineCode": {
          "coding": [
            {
              "system": "http://snomed.info/sct",
              "code": "7161000087102",
              "display": "[MMR] M-M-R II"
            }
          ]
        },
        "patient": {
          "reference": "urn:uuid:4404bec0-aad2-4a40-b9c7-259d522adc7b"
        },
        "occurrenceDateTime": "2022-04-23",
        "primarySource": true,
        "site": {
          "coding": [
            {
              "system": "http://terminology.hl7.org/CodeSystem/v2-0493",
              "code": "RA",
              "display": "Right arm"
            }
          ]
        },
        "route": {
          "coding": [
            {
              "system": "http://snomed.info/sct",
              "code": 78421000,
              "display": "Intramuscular: IM"
            }
          ]
        }
      }
    },
    {
      "fullUrl": "urn:uuid:eb2f1c78-fa8f-4ee3-9605-bb5691bc4d00",
      "resource": {
        "resourceType": "Immunization",
        "id": "eb2f1c78-fa8f-4ee3-9605-bb5691bc4d00",
        "status": "completed",
        "vaccineCode": {
          "coding": [
            {
              "system": "http://snomed.info/sct",
              "code": "24381000087107",
              "display": "[Inf] AFLURIA TETRA"
            }
          ]
        },
        "patient": {
          "reference": "urn:uuid:4404bec0-aad2-4a40-b9c7-259d522adc7b"
        },
        "occurrenceDateTime": "2021-04-16",
        "primarySource": true,
        "site": {
          "coding": [
            {
              "system": "http://terminology.hl7.org/CodeSystem/v2-0493",
              "code": "RA",
              "display": "Right arm"
            }
          ]
        },
        "route": {
          "coding": [
            {
              "system": "http://snomed.info/sct",
              "code": 78421000,
              "display": "Intramuscular: IM"
            }
          ]
        }
      }
    },
    {
      "fullUrl": "urn:uuid:ff7252fe-18a0-4e38-9d45-4cb6e2ff55d4",
      "resource": {
        "resourceType": "Immunization",
        "id": "ff7252fe-18a0-4e38-9d45-4cb6e2ff55d4",
        "status": "completed",
        "vaccineCode": {
          "coding": [
            {
              "system": "http://snomed.info/sct",
              "code": "7361000087100",
              "display": "[IPV] IMOVAX POLIO"
            }
          ]
        },
        "patient": {
          "reference": "urn:uuid:4404bec0-aad2-4a40-b9c7-259d522adc7b"
        },
        "occurrenceDateTime": "2021-12-22",
        "primarySource": true,
        "site": {
          "coding": [
            {
              "system": "http://terminology.hl7.org/CodeSystem/v2-0493",
              "code": "RA",
              "display": "Right arm"
            }
          ]
        },
        "route": {
          "coding": [
            {
              "system": "http://snomed.info/sct",
              "code": 78421000,
              "display": "Intramuscular: IM"
            }
          ]
        }
      }
    },
    {
      "fullUrl": "urn:uuid:d08a5d58-16be-4280-9fcd-cbff4ee1bcf2",
      "resource": {
        "resourceType": "Immunization",
        "id": "d08a5d58-16be-4280-9fcd-cbff4ee1bcf2",
        "status": "completed",
        "vaccineCode": {
          "coding": [
            {
              "system": "http://snomed.info/sct",
              "code": "24381000087107",
              "display": "[Inf] AFLURIA TETRA"
            }
          ]
        },
        "patient": {
          "reference": "urn:uuid:4404bec0-aad2-4a40-b9c7-259d522adc7b"
        },
        "occurrenceDateTime": "2020-06-23",
        "primarySource": true,
        "site": {
          "coding": [
            {
              "system": "http://terminology.hl7.org/CodeSystem/v2-0493",
              "code": "RA",
              "display": "Right arm"
            }
          ]
        },
        "route": {
          "coding": [
            {
              "system": "http://snomed.info/sct",
              "code": 78421000,
              "display": "Intramuscular: IM"
            }
          ]
        }
      }
    },
    {
      "fullUrl": "urn:uuid:516f67e3-92aa-4fce-af12-ca669a7187d2",
      "resource": {
        "resourceType": "Immunization",
        "id": "516f67e3-92aa-4fce-af12-ca669a7187d2",
        "status": "completed",
        "vaccineCode": {
          "coding": [
            {
              "system": "http://snomed.info/sct",
              "code": "28581000087106",
              "display": "[COVID-19] COMIRNATY (original strain) 30 mcg/0.3 mL"
            }
          ]
        },
        "patient": {
          "reference": "urn:uuid:4404bec0-aad2-4a40-b9c7-259d522adc7b"
        },
        "occurrenceDateTime": "2021-10-07",
        "primarySource": true,
        "site": {
          "coding": [
            {
              "system": "http://terminology.hl7.org/CodeSystem/v2-0493",
              "code": "LA",
              "display": "Left arm"
            }
          ]
        },
        "route": {
          "coding": [
            {
              "system": "http://snomed.info/sct",
              "code": 78421000,
              "display": "Intramuscular: IM"
            }
          ]
        }
      }
    }
  ]
}